dsr1_no,dsr1,dsr2_no,dsr_e,math_q,correct_resp,image_disgust,no,pol_ques,trials_4.thisRepN,trials_4.thisTrialN,trials_4.thisN,trials_4.thisIndex,trials_5.thisRepN,trials_5.thisTrialN,trials_5.thisN,trials_5.thisIndex,trials_3.thisRepN,trials_3.thisTrialN,trials_3.thisN,trials_3.thisIndex,trials.thisRepN,trials.thisTrialN,trials.thisN,trials.thisIndex,trials_2.thisRepN,trials_2.thisTrialN,trials_2.thisN,trials_2.thisIndex,thisRow.t,notes,consent_form.started,text_10.started,button_2.started,consent_form.stopped,button_2.numClicks,button_2.timesOn,button_2.timesOff,Introduction.started,text_3.started,button.started,Introduction.stopped,button.numClicks,button.timesOn,button.timesOff,dsr_a.started,text_6.started,text_7.started,slider_3.started,dsr_a.stopped,slider_3.response,slider_3.rt,dsr_b.started,text_8.started,text_9.started,slider_4.started,dsr_b.stopped,slider_4.response,slider_4.rt,distractor.started,text.started,textbox.started,buton.started,distractor.stopped,textbox.text,buton.numClicks,buton.timesOn,buton.timesOff,encoding.started,polygon.started,image.started,polygon.stopped,slider.started,image.stopped,encoding.stopped,slider.response,slider.rt,instruction.started,text_4.started,Button.started,instruction.stopped,Button.numClicks,Button.timesOn,Button.timesOff,testing.started,text_2.started,slider_2.started,testing.stopped,slider_2.response,slider_2.rt,exit_message.started,text_5.started,exit_message.stopped,participant,session,date,expName,psychopyVersion,frameRate,expStart
,,,,,,,,,,,,,,,,,,,,,,,,,,,,,,,0.0047619,0.0136285,0.0136285,1.9297243,1,[1.923746399988886],[1.9237567000091076],,,,,,,,,,,,,,,,,,,,,,,,,,,,,,,,,,,,,,,,,,,,,,,,,,,,,,,,AC,1,2024-11-22_16h10.50.916,Disgust Thang,2024.1.5,None,2024-11-22 16h11.02.864651 +0530
,,,,,,,,,,,,,,,,,,,,,,,,,,,,,,,,,,,,,,1.9298123,1.9454179,1.9454179,2.896912,1,[0.9657335000229068],[0.9657436000125017],,,,,,,,,,,,,,,,,,,,,,,,,,,,,,,,,,,,,,,,,,,,,,,,,AC,1,2024-11-22_16h10.50.916,Disgust Thang,2024.1.5,None,2024-11-22 16h11.02.864651 +0530
1r,"I might be willing to try eating monkey meat, under some circumstances",,,,,,,,0,0,0,0,,,,,,,,,,,,,,,,,3.0642255,,,,,,,,,,,,,,,,3.0035783,3.0642255,3.0642255,3.0642255,8.8562069,1,5.8265716,,,,,,,,,,,,,,,,,,,,,,,,,,,,,,,,,,,,,,,,,,AC,1,2024-11-22_16h10.50.916,Disgust Thang,2024.1.5,None,2024-11-22 16h11.02.864651 +0530
2,"It would bother me to be in a science class, and to see a human hand preserved in a jar",,,,,,,,0,1,1,1,,,,,,,,,,,,,,,,,8.8895253,,,,,,,,,,,,,,,,8.8565861,8.8895253,8.8895253,8.8895253,16.8039335,0,7.9194276,,,,,,,,,,,,,,,,,,,,,,,,,,,,,,,,,,,,,,,,,,AC,1,2024-11-22_16h10.50.916,Disgust Thang,2024.1.5,None,2024-11-22 16h11.02.864651 +0530
3,It bothers me to hear someone clear a throat full of mucous,,,,,,,,0,2,2,2,,,,,,,,,,,,,,,,,16.8296276,,,,,,,,,,,,,,,,16.804215,16.8296276,16.8296276,16.8296276,21.1845664,0,4.3566485,,,,,,,,,,,,,,,,,,,,,,,,,,,,,,,,,,,,,,,,,,AC,1,2024-11-22_16h10.50.916,Disgust Thang,2024.1.5,None,2024-11-22 16h11.02.864651 +0530
4,I never let any part of my body touch the toilet seat in public restrooms. ,,,,,,,,0,3,3,3,,,,,,,,,,,,,,,,,21.2134975,,,,,,,,,,,,,,,,21.1848428,21.2134975,21.2134975,21.2134975,27.5712444,3,6.3614053,,,,,,,,,,,,,,,,,,,,,,,,,,,,,,,,,,,,,,,,,,AC,1,2024-11-22_16h10.50.916,Disgust Thang,2024.1.5,None,2024-11-22 16h11.02.864651 +0530
5,I would go out of my way to avoid walking through a graveyard. ,,,,,,,,0,4,4,4,,,,,,,,,,,,,,,,,27.598637,,,,,,,,,,,,,,,,27.5715189,27.598637,27.598637,27.598637,33.7929747,0,6.1955498,,,,,,,,,,,,,,,,,,,,,,,,,,,,,,,,,,,,,,,,,,AC,1,2024-11-22_16h10.50.916,Disgust Thang,2024.1.5,None,2024-11-22 16h11.02.864651 +0530
6r,Seeing a cockroach in someone else's house doesn't bother me. ,,,,,,,,0,5,5,5,,,,,,,,,,,,,,,,,33.8207555,,,,,,,,,,,,,,,,33.7932721,33.8207555,33.8207555,33.8207555,40.6822771,2,6.8617555,,,,,,,,,,,,,,,,,,,,,,,,,,,,,,,,,,,,,,,,,,AC,1,2024-11-22_16h10.50.916,Disgust Thang,2024.1.5,None,2024-11-22 16h11.02.864651 +0530
7,It would bother me tremendously to touch a dead body. ,,,,,,,,0,6,6,6,,,,,,,,,,,,,,,,,40.7061133,,,,,,,,,,,,,,,,40.682582,40.7061133,40.7061133,40.7061133,48.0524796,1,7.3428541,,,,,,,,,,,,,,,,,,,,,,,,,,,,,,,,,,,,,,,,,,AC,1,2024-11-22_16h10.50.916,Disgust Thang,2024.1.5,None,2024-11-22 16h11.02.864651 +0530
8,"If I see someone vomit, it makes me sick to my stomach. ",,,,,,,,0,7,7,7,,,,,,,,,,,,,,,,,48.077163,,,,,,,,,,,,,,,,48.0528796,48.077163,48.077163,48.077163,51.1529222,0,3.0758419,,,,,,,,,,,,,,,,,,,,,,,,,,,,,,,,,,,,,,,,,,AC,1,2024-11-22_16h10.50.916,Disgust Thang,2024.1.5,None,2024-11-22 16h11.02.864651 +0530
9,I probably would not go to my favorite restaurant if I found out that the cook had a cold. ,,,,,,,,0,8,8,8,,,,,,,,,,,,,,,,,51.1787706,,,,,,,,,,,,,,,,51.1532534,51.1787706,51.1787706,51.1787706,74.1481022,3,22.9663882,,,,,,,,,,,,,,,,,,,,,,,,,,,,,,,,,,,,,,,,,,AC,1,2024-11-22_16h10.50.916,Disgust Thang,2024.1.5,None,2024-11-22 16h11.02.864651 +0530
10r,"It would not upset me at all to watch a person with a glass eye take the eye 
out of the socket.  ",,,,,,,,0,9,9,9,,,,,,,,,,,,,,,,,74.1806148,,,,,,,,,,,,,,,,74.1483967,74.1806148,74.1806148,74.1806148,81.2878449,3,7.1106391,,,,,,,,,,,,,,,,,,,,,,,,,,,,,,,,,,,,,,,,,,AC,1,2024-11-22_16h10.50.916,Disgust Thang,2024.1.5,None,2024-11-22 16h11.02.864651 +0530
11,It would bother me to see a rat run across my path in a park. ,,,,,,,,0,10,10,10,,,,,,,,,,,,,,,,,81.3149776,,,,,,,,,,,,,,,,81.2881479,81.3149776,81.3149776,81.3149776,86.6015181,0,5.2887479,,,,,,,,,,,,,,,,,,,,,,,,,,,,,,,,,,,,,,,,,,AC,1,2024-11-22_16h10.50.916,Disgust Thang,2024.1.5,None,2024-11-22 16h11.02.864651 +0530
12d,I would rather eat a piece of fruit than a piece of paper ,,,,,,,,0,11,11,11,,,,,,,,,,,,,,,,,86.6264842,,,,,,,,,,,,,,,,86.6017715,86.6264842,86.6264842,86.6264842,93.6964136,4,7.0711014,,,,,,,,,,,,,,,,,,,,,,,,,,,,,,,,,,,,,,,,,,AC,1,2024-11-22_16h10.50.916,Disgust Thang,2024.1.5,None,2024-11-22 16h11.02.864651 +0530
13,"Even if I was hungry, I would not drink a bowl of my favorite soup if it had been
stirred by a used but thoroughly washed flyswatter. ",,,,,,,,0,12,12,12,,,,,,,,,,,,,,,,,93.723952,,,,,,,,,,,,,,,,93.696675,93.723952,93.723952,93.723952,110.965374,2,17.241837,,,,,,,,,,,,,,,,,,,,,,,,,,,,,,,,,,,,,,,,,,AC,1,2024-11-22_16h10.50.916,Disgust Thang,2024.1.5,None,2024-11-22 16h11.02.864651 +0530
14,"It would bother me to sleep in a nice hotel room if I knew that a man had died of a
heart attack in that room the night before. ",,,,,,,,0,13,13,13,,,,,,,,,,,,,,,,,110.9914369,,,,,,,,,,,,,,,,110.9656275,110.9914369,110.9914369,110.9914369,112.7157371,2,1.7251337,,,,,,,,,,,,,,,,,,,,,,,,,,,,,,,,,,,,,,,,,,AC,1,2024-11-22_16h10.50.916,Disgust Thang,2024.1.5,None,2024-11-22 16h11.02.864651 +0530
,,15,You see maggots on a piece of meat in an outdoor garbage pail. ,,,,,,,,,,0,0,0,0,,,,,,,,,,,,,112.7472518,,,,,,,,,,,,,,,,,,,,,,,112.7209184,112.7472518,112.7472518,112.7472518,143.9034612,4,31.1582333,,,,,,,,,,,,,,,,,,,,,,,,,,,,,,,,,,,AC,1,2024-11-22_16h10.50.916,Disgust Thang,2024.1.5,None,2024-11-22 16h11.02.864651 +0530
,,16d,You see a person eating an apple with a knife and fork,,,,,,,,,,0,1,1,1,,,,,,,,,,,,,143.9297685,,,,,,,,,,,,,,,,,,,,,,,143.903812,143.9297685,143.9297685,143.9297685,165.838701,0,21.9080513,,,,,,,,,,,,,,,,,,,,,,,,,,,,,,,,,,,AC,1,2024-11-22_16h10.50.916,Disgust Thang,2024.1.5,None,2024-11-22 16h11.02.864651 +0530
,,17,"While you are walking through a tunnel under a railroad track, you smell urine. ",,,,,,,,,,0,2,2,2,,,,,,,,,,,,,165.8680759,,,,,,,,,,,,,,,,,,,,,,,165.8390144,165.8680759,165.8680759,165.8680759,171.442669,0,5.5744236,,,,,,,,,,,,,,,,,,,,,,,,,,,,,,,,,,,AC,1,2024-11-22_16h10.50.916,Disgust Thang,2024.1.5,None,2024-11-22 16h11.02.864651 +0530
,,18,"You take a sip of soda, and then realize that you drank from the glass that an
 		acquaintance of yours had been drinking from",,,,,,,,,,0,3,3,3,,,,,,,,,,,,,171.4748894,,,,,,,,,,,,,,,,,,,,,,,171.4429438,171.4748894,171.4748894,171.4748894,177.1361832,2,5.6622596,,,,,,,,,,,,,,,,,,,,,,,,,,,,,,,,,,,AC,1,2024-11-22_16h10.50.916,Disgust Thang,2024.1.5,None,2024-11-22 16h11.02.864651 +0530
,,19,"Your friend's pet cat dies, and you have to pick up the dead body with your bare hands.  ",,,,,,,,,,0,4,4,4,,,,,,,,,,,,,177.1663823,,,,,,,,,,,,,,,,,,,,,,,177.1364506,177.1663823,177.1663823,177.1663823,187.0918138,0,9.9275474,,,,,,,,,,,,,,,,,,,,,,,,,,,,,,,,,,,AC,1,2024-11-22_16h10.50.916,Disgust Thang,2024.1.5,None,2024-11-22 16h11.02.864651 +0530
,,20,"You see someone put ketchup on vanilla ice cream, and eat it. ",,,,,,,,,,0,5,5,5,,,,,,,,,,,,,187.1185628,,,,,,,,,,,,,,,,,,,,,,,187.092119,187.1185628,187.1185628,187.1185628,191.1569534,4,4.039337,,,,,,,,,,,,,,,,,,,,,,,,,,,,,,,,,,,AC,1,2024-11-22_16h10.50.916,Disgust Thang,2024.1.5,None,2024-11-22 16h11.02.864651 +0530
,,21,You see a man with his intestines exposed after an accident. ,,,,,,,,,,0,6,6,6,,,,,,,,,,,,,191.1814218,,,,,,,,,,,,,,,,,,,,,,,191.157227,191.1814218,191.1814218,191.1814218,194.2224221,4,3.0411712,,,,,,,,,,,,,,,,,,,,,,,,,,,,,,,,,,,AC,1,2024-11-22_16h10.50.916,Disgust Thang,2024.1.5,None,2024-11-22 16h11.02.864651 +0530
,,22,You discover that a friend of yours changes underwear only once a week. ,,,,,,,,,,0,7,7,7,,,,,,,,,,,,,194.247671,,,,,,,,,,,,,,,,,,,,,,,194.2227594,194.247671,194.247671,194.247671,212.1862675,4,17.9388924,,,,,,,,,,,,,,,,,,,,,,,,,,,,,,,,,,,AC,1,2024-11-22_16h10.50.916,Disgust Thang,2024.1.5,None,2024-11-22 16h11.02.864651 +0530
,,23,A friend offers you a piece of chocolate shaped like dog doo. ,,,,,,,,,,0,8,8,8,,,,,,,,,,,,,212.2145373,,,,,,,,,,,,,,,,,,,,,,,212.1865613,212.2145373,212.2145373,212.2145373,230.5470595,3,18.3341856,,,,,,,,,,,,,,,,,,,,,,,,,,,,,,,,,,,AC,1,2024-11-22_16h10.50.916,Disgust Thang,2024.1.5,None,2024-11-22 16h11.02.864651 +0530
,,24,You accidentally touch the ashes of a person who has been cremated. ,,,,,,,,,,0,9,9,9,,,,,,,,,,,,,230.5726618,,,,,,,,,,,,,,,,,,,,,,,230.5473348,230.5726618,230.5726618,230.5726618,233.6955754,0,3.1237391,,,,,,,,,,,,,,,,,,,,,,,,,,,,,,,,,,,AC,1,2024-11-22_16h10.50.916,Disgust Thang,2024.1.5,None,2024-11-22 16h11.02.864651 +0530
,,25,You are about to drink a glass of milk when you smell that it is spoiled. ,,,,,,,,,,0,10,10,10,,,,,,,,,,,,,233.720669,,,,,,,,,,,,,,,,,,,,,,,233.695865,233.720669,233.720669,233.720669,238.9401493,1,5.2190445,,,,,,,,,,,,,,,,,,,,,,,,,,,,,,,,,,,AC,1,2024-11-22_16h10.50.916,Disgust Thang,2024.1.5,None,2024-11-22 16h11.02.864651 +0530
,,26,"As part of a sex education class, you are required to inflate a new unlubricated
		condom, using your mouth. ",,,,,,,,,,0,11,11,11,,,,,,,,,,,,,238.9667126,,,,,,,,,,,,,,,,,,,,,,,238.9404212,238.9667126,238.9667126,238.9667126,246.9835043,1,8.0175017,,,,,,,,,,,,,,,,,,,,,,,,,,,,,,,,,,,AC,1,2024-11-22_16h10.50.916,Disgust Thang,2024.1.5,None,2024-11-22 16h11.02.864651 +0530
,,27,"You are walking barefoot on concrete, and you step on an earthworm. ",,,,,,,,,,0,12,12,12,,,,,,,,,,,,,247.0104572,,,,,,,,,,,,,,,,,,,,,,,246.9837986,247.0104572,247.0104572,247.0104572,281.7897405,4,34.7807239,,,,,,,,,,,,,,,,,,,,,,,,,,,,,,,,,,,AC,1,2024-11-22_16h10.50.916,Disgust Thang,2024.1.5,None,2024-11-22 16h11.02.864651 +0530
,,,,15-7,8,,,,,,,,,,,,0,0,0,0,,,,,,,,,281.811497,,,,,,,,,,,,,,,,,,,,,,,,,,,,,,281.7949802,281.811497,281.811497,281.811497,290.1591702,8,1,[8.358386499981862],[8.358392899972387],,,,,,,,,,,,,,,,,,,,,,,,,,AC,1,2024-11-22_16h10.50.916,Disgust Thang,2024.1.5,None,2024-11-22 16h11.02.864651 +0530
,,,,5*7,35,,,,,,,,,,,,0,1,1,1,,,,,,,,,290.1747318,,,,,,,,,,,,,,,,,,,,,,,,,,,,,,290.1598149,290.1747318,290.1747318,290.1747318,297.3254286,"35
",1,[7.161154700006591],[7.161161800002446],,,,,,,,,,,,,,,,,,,,,,,,,,AC,1,2024-11-22_16h10.50.916,Disgust Thang,2024.1.5,None,2024-11-22 16h11.02.864651 +0530
,,,,42/7,6,,,,,,,,,,,,0,2,2,2,,,,,,,,,297.3423128,,,,,,,,,,,,,,,,,,,,,,,,,,,,,,297.3258505,297.3423128,297.3423128,297.3423128,302.7078881,6,1,[5.376028700004099],[5.376037800015183],,,,,,,,,,,,,,,,,,,,,,,,,,AC,1,2024-11-22_16h10.50.916,Disgust Thang,2024.1.5,None,2024-11-22 16h11.02.864651 +0530
,,,,51-17,34,,,,,,,,,,,,0,3,3,3,,,,,,,,,302.7232939,,,,,,,,,,,,,,,,,,,,,,,,,,,,,,302.708392,302.7232939,302.7232939,302.7232939,321.8723267,34,1,[19.16090659998008],[19.160950399993453],,,,,,,,,,,,,,,,,,,,,,,,,,AC,1,2024-11-22_16h10.50.916,Disgust Thang,2024.1.5,None,2024-11-22 16h11.02.864651 +0530
,,,,19*8,152,,,,,,,,,,,,0,4,4,4,,,,,,,,,321.8904569,,,,,,,,,,,,,,,,,,,,,,,,,,,,,,321.8728072,321.8904569,321.8904569,321.8904569,336.5539039,152,1,[14.67551060000551],[14.675520799995866],,,,,,,,,,,,,,,,,,,,,,,,,,AC,1,2024-11-22_16h10.50.916,Disgust Thang,2024.1.5,None,2024-11-22 16h11.02.864651 +0530
,,,,6* (25+3),168,,,,,,,,,,,,0,5,5,5,,,,,,,,,336.57164,,,,,,,,,,,,,,,,,,,,,,,,,,,,,,336.5544369,336.57164,336.57164,336.57164,362.4839263,168,1,[25.922638999996707],[25.922663300007116],,,,,,,,,,,,,,,,,,,,,,,,,,AC,1,2024-11-22_16h10.50.916,Disgust Thang,2024.1.5,None,2024-11-22 16h11.02.864651 +0530
,,,,,,images/1118_body products.png,,,,,,,,,,,,,,,0,0,0,3,,,,,362.5208186,,,,,,,,,,,,,,,,,,,,,,,,,,,,,,,,,,,,,,,362.4890606,362.5208186,363.5134991,363.519421,370.5018742,373.5142059,380.4356165,2.025925926,17.9053585,,,,,,,,,,,,,,,,,AC,1,2024-11-22_16h10.50.916,Disgust Thang,2024.1.5,None,2024-11-22 16h11.02.864651 +0530
,,,,,,images/1253_hygiene.png,,,,,,,,,,,,,,,0,1,1,8,,,,,380.4667792,,,,,,,,,,,,,,,,,,,,,,,,,,,,,,,,,,,,,,,380.4359659,380.4667792,381.4475887,381.4804102,388.4457644,391.4616763,392.4168829,1.037037037,11.9406674,,,,,,,,,,,,,,,,,AC,1,2024-11-22_16h10.50.916,Disgust Thang,2024.1.5,None,2024-11-22 16h11.02.864651 +0530
,,,,,,images/1171_injuries_infections.png,,,,,,,,,,,,,,,0,2,2,4,,,,,392.4464358,,,,,,,,,,,,,,,,,,,,,,,,,,,,,,,,,,,,,,,392.4171768,392.4464358,393.4296842,393.445158,400.4288401,403.4434974,404.8166944,3.022222222,12.3602692,,,,,,,,,,,,,,,,,AC,1,2024-11-22_16h10.50.916,Disgust Thang,2024.1.5,None,2024-11-22 16h11.02.864651 +0530
,,,,,,images/1201_death.png,,,,,,,,,,,,,,,0,3,3,6,,,,,404.8531288,,,,,,,,,,,,,,,,,,,,,,,,,,,,,,,,,,,,,,,404.8169684,404.8531288,405.828281,405.8606922,412.827165,,413.6308785,2.996296296,8.7685694,,,,,,,,,,,,,,,,,AC,1,2024-11-22_16h10.50.916,Disgust Thang,2024.1.5,None,2024-11-22 16h11.02.864651 +0530
,,,,,,images/1218_death.png,,,,,,,,,,,,,,,0,4,4,7,,,,,413.6598339,,,,,,,,,,,,,,,,,,,,,,,,,,,,,,,,,,,,,,,413.6311356,413.6598339,414.6436413,414.6594298,421.6431552,,422.4832685,2.996296296,8.8135647,,,,,,,,,,,,,,,,,AC,1,2024-11-22_16h10.50.916,Disgust Thang,2024.1.5,None,2024-11-22 16h11.02.864651 +0530
,,,,,,images/1110_body products.png,,,,,,,,,,,,,,,0,5,5,2,,,,,422.5137123,,,,,,,,,,,,,,,,,,,,,,,,,,,,,,,,,,,,,,,422.4835406,422.5137123,423.4926292,423.5251048,430.4912647,433.5063405,434.193741,1.996296296,11.6708221,,,,,,,,,,,,,,,,,AC,1,2024-11-22_16h10.50.916,Disgust Thang,2024.1.5,None,2024-11-22 16h11.02.864651 +0530
,,,,,,images/1034_food.png,,,,,,,,,,,,,,,0,6,6,1,,,,,434.2210012,,,,,,,,,,,,,,,,,,,,,,,,,,,,,,,,,,,,,,,434.1939916,434.2210012,435.2077995,435.223723,442.2062528,,443.5319709,2.977777778,9.3008458,,,,,,,,,,,,,,,,,AC,1,2024-11-22_16h10.50.916,Disgust Thang,2024.1.5,None,2024-11-22 16h11.02.864651 +0530
,,,,,,images/1033_food.png,,,,,,,,,,,,,,,0,7,7,0,,,,,443.5592708,,,,,,,,,,,,,,,,,,,,,,,,,,,,,,,,,,,,,,,443.5322236,443.5592708,444.5397152,444.5722141,451.5373822,,452.2463202,2.977777778,8.6766031,,,,,,,,,,,,,,,,,AC,1,2024-11-22_16h10.50.916,Disgust Thang,2024.1.5,None,2024-11-22 16h11.02.864651 +0530
,,,,,,images/1182_injuries_infections.png,,,,,,,,,,,,,,,0,8,8,5,,,,,452.2748265,,,,,,,,,,,,,,,,,,,,,,,,,,,,,,,,,,,,,,,452.2466207,452.2748265,453.2555072,453.2878114,460.2537331,,460.960697,2.977777778,8.6744198,,,,,,,,,,,,,,,,,AC,1,2024-11-22_16h10.50.916,Disgust Thang,2024.1.5,None,2024-11-22 16h11.02.864651 +0530
,,,,,,,,,,,,,,,,,,,,,,,,,,,,,,,,,,,,,,,,,,,,,,,,,,,,,,,,,,,,,,,,,,,,,,,,,,,,,460.9608701,460.9696847,460.9696847,463.2546549,1,[2.2926962000201456],[2.292703800019808],,,,,,,,,,AC,1,2024-11-22_16h10.50.916,Disgust Thang,2024.1.5,None,2024-11-22 16h11.02.864651 +0530
,,,,,,, ,The government should pass a Constitutional amendment that would make it illegal to discriminate against anyone in any situation based on sexual orientation.,,,,,,,,,,,,,,,,,0,0,0,0,463.2968637,,,,,,,,,,,,,,,,,,,,,,,,,,,,,,,,,,,,,,,,,,,,,,,,,,,,,,,463.2627494,463.2968637,463.2968637,463.4208238,3,0.1296693,,,,AC,1,2024-11-22_16h10.50.916,Disgust Thang,2024.1.5,None,2024-11-22 16h11.02.864651 +0530
,,,,,,,2R,"The national government should establish a centrally funded medical program so that all persons, regardless of means, have access to medical care.",,,,,,,,,,,,,,,,,0,1,1,1,463.4482307,,,,,,,,,,,,,,,,,,,,,,,,,,,,,,,,,,,,,,,,,,,,,,,,,,,,,,,463.4213302,463.4482307,463.4482307,475.910452,2,12.4626883,,,,AC,1,2024-11-22_16h10.50.916,Disgust Thang,2024.1.5,None,2024-11-22 16h11.02.864651 +0530
,,,,,,,3,It should be legal and constitutional to say a prayer at the beginning of assemblies in public schools.,,,,,,,,,,,,,,,,,0,2,2,2,475.9365969,,,,,,,,,,,,,,,,,,,,,,,,,,,,,,,,,,,,,,,,,,,,,,,,,,,,,,,475.910741,475.9365969,475.9365969,480.6743755,5,4.7373597,,,,AC,1,2024-11-22_16h10.50.916,Disgust Thang,2024.1.5,None,2024-11-22 16h11.02.864651 +0530
,,,,,,,4R,Persons should be allowed to join and serve in the military regardless of their sexual preference as long as their behavior meets strict military standards.,,,,,,,,,,,,,,,,,0,3,3,3,480.7016225,,,,,,,,,,,,,,,,,,,,,,,,,,,,,,,,,,,,,,,,,,,,,,,,,,,,,,,480.6746619,480.7016225,480.7016225,488.4103479,1,7.7083166,,,,AC,1,2024-11-22_16h10.50.916,Disgust Thang,2024.1.5,None,2024-11-22 16h11.02.864651 +0530
,,,,,,,5R,A person should be able to use and grow small quantities of marijuana in the privacy of his or her own home with no legal consequences.,,,,,,,,,,,,,,,,,0,4,4,4,488.4393284,,,,,,,,,,,,,,,,,,,,,,,,,,,,,,,,,,,,,,,,,,,,,,,,,,,,,,,488.4106383,488.4393284,488.4393284,498.8226699,1,10.3852265,,,,AC,1,2024-11-22_16h10.50.916,Disgust Thang,2024.1.5,None,2024-11-22 16h11.02.864651 +0530
,,,,,,,6,"Persons receiving the death penalty should be limited in their number of appeals, and the death sentence should be carried out in a shorter time period than it is now.",,,,,,,,,,,,,,,,,0,5,5,5,498.8508632,,,,,,,,,,,,,,,,,,,,,,,,,,,,,,,,,,,,,,,,,,,,,,,,,,,,,,,498.8229695,498.8508632,498.8508632,508.8750872,2,10.0241105,,,,AC,1,2024-11-22_16h10.50.916,Disgust Thang,2024.1.5,None,2024-11-22 16h11.02.864651 +0530
,,,,,,,7,The government should reverse its decision on abortion and make it more challenging to have an abortion except in special cases such as rape and incest. ,,,,,,,,,,,,,,,,,0,6,6,6,508.9025235,,,,,,,,,,,,,,,,,,,,,,,,,,,,,,,,,,,,,,,,,,,,,,,,,,,,,,,508.8753666,508.9025235,508.9025235,517.2562265,5,8.3539395,,,,AC,1,2024-11-22_16h10.50.916,Disgust Thang,2024.1.5,None,2024-11-22 16h11.02.864651 +0530
,,,,,,,8,India should require one year of military service for all able-bodied people.,,,,,,,,,,,,,,,,,0,7,7,7,517.2821542,,,,,,,,,,,,,,,,,,,,,,,,,,,,,,,,,,,,,,,,,,,,,,,,,,,,,,,517.2565092,517.2821542,517.2821542,521.752297,4,4.4708038,,,,AC,1,2024-11-22_16h10.50.916,Disgust Thang,2024.1.5,None,2024-11-22 16h11.02.864651 +0530
,,,,,,,9,"Parents should be able to send their children to any school they choose, and tax money should be used to support the schools that parents choose.",,,,,,,,,,,,,,,,,0,8,8,8,521.7798575,,,,,,,,,,,,,,,,,,,,,,,,,,,,,,,,,,,,,,,,,,,,,,,,,,,,,,,521.752564,521.7798575,521.7798575,544.3683154,5,22.5889882,,,,AC,1,2024-11-22_16h10.50.916,Disgust Thang,2024.1.5,None,2024-11-22 16h11.02.864651 +0530
,,,,,,,10,Police should be able to confiscate any materials that are deemed to be obscene or pornographic. ,,,,,,,,,,,,,,,,,0,9,9,9,544.397839,,,,,,,,,,,,,,,,,,,,,,,,,,,,,,,,,,,,,,,,,,,,,,,,,,,,,,,544.3686403,544.397839,544.397839,558.2816868,5,13.8851266,,,,AC,1,2024-11-22_16h10.50.916,Disgust Thang,2024.1.5,None,2024-11-22 16h11.02.864651 +0530
,,,,,,,11,The central government should be required to have a balanced budget that does not spend more than the money that comes in from taxes,,,,,,,,,,,,,,,,,0,10,10,10,558.3090145,,,,,,,,,,,,,,,,,,,,,,,,,,,,,,,,,,,,,,,,,,,,,,,,,,,,,,,558.2819805,558.3090145,558.3090145,634.2224279,1,75.9138595,,,,AC,1,2024-11-22_16h10.50.916,Disgust Thang,2024.1.5,None,2024-11-22 16h11.02.864651 +0530
,,,,,,,12R, Laws that limit the sale of fireworks and other explosive materials that are not intended for legitimate cultural or religious purposes should be passed.,,,,,,,,,,,,,,,,,0,11,11,11,634.2525281,,,,,,,,,,,,,,,,,,,,,,,,,,,,,,,,,,,,,,,,,,,,,,,,,,,,,,,634.2227237,634.2525281,634.2525281,638.738338,1,4.4862166,,,,AC,1,2024-11-22_16h10.50.916,Disgust Thang,2024.1.5,None,2024-11-22 16h11.02.864651 +0530
,,,,,,,13R,Sex education should be in taught all public schools and all students should be required to take the class unless exempted by parents. ,,,,,,,,,,,,,,,,,0,12,12,12,638.7649271,,,,,,,,,,,,,,,,,,,,,,,,,,,,,,,,,,,,,,,,,,,,,,,,,,,,,,,638.7386272,638.7649271,638.7649271,643.5807835,1,4.8128905,,,,AC,1,2024-11-22_16h10.50.916,Disgust Thang,2024.1.5,None,2024-11-22 16h11.02.864651 +0530
,,,,,,,14,Reservation system should be abolished in India. ,,,,,,,,,,,,,,,,,0,13,13,13,643.6073445,,,,,,,,,,,,,,,,,,,,,,,,,,,,,,,,,,,,,,,,,,,,,,,,,,,,,,,643.581082,643.6073445,643.6073445,648.7076863,2,5.1006055,,,,AC,1,2024-11-22_16h10.50.916,Disgust Thang,2024.1.5,None,2024-11-22 16h11.02.864651 +0530
,,,,,,,15,"The Prime Minister, without permission from the President, should be able to use the armed forces and call for an emergency in possible combat areas for as long as he/she deems necessary. ",,,,,,,,,,,,,,,,,0,14,14,14,648.7366021,,,,,,,,,,,,,,,,,,,,,,,,,,,,,,,,,,,,,,,,,,,,,,,,,,,,,,,648.7079678,648.7366021,648.7366021,657.3092808,5,8.5720795,,,,AC,1,2024-11-22_16h10.50.916,Disgust Thang,2024.1.5,None,2024-11-22 16h11.02.864651 +0530
,,,,,,,16R,"Laws should be passed to make it legal for public employees such as police, firemen, teachers, and garbage collectors to go on strike. ",,,,,,,,,,,,,,,,,0,15,15,15,657.3360113,,,,,,,,,,,,,,,,,,,,,,,,,,,,,,,,,,,,,,,,,,,,,,,,,,,,,,,657.3095698,657.3360113,657.3360113,668.2223907,3,10.8875321,,,,AC,1,2024-11-22_16h10.50.916,Disgust Thang,2024.1.5,None,2024-11-22 16h11.02.864651 +0530
,,,,,,,17,Public schools should be required to teach the world's creation as written in the Bhagavad Gita in all classes that teach evolution theory.,,,,,,,,,,,,,,,,,0,16,16,16,668.252068,,,,,,,,,,,,,,,,,,,,,,,,,,,,,,,,,,,,,,,,,,,,,,,,,,,,,,,668.2226875,668.252068,668.252068,679.5001346,5,11.2481045,,,,AC,1,2024-11-22_16h10.50.916,Disgust Thang,2024.1.5,None,2024-11-22 16h11.02.864651 +0530
,,,,,,,18,"The government should mandate family planning counseling and reversible sterilization for low-income, unmarried women with three or more children. ",,,,,,,,,,,,,,,,,0,17,17,17,679.5267244,,,,,,,,,,,,,,,,,,,,,,,,,,,,,,,,,,,,,,,,,,,,,,,,,,,,,,,679.5004103,679.5267244,679.5267244,738.3871294,1,58.8612906,,,,AC,1,2024-11-22_16h10.50.916,Disgust Thang,2024.1.5,None,2024-11-22 16h11.02.864651 +0530
,,,,,,,19R,"Birth control information, non-prescription contraceptive devices, and the morning-after pill should be made available on college campuses.",,,,,,,,,,,,,,,,,0,18,18,18,738.4145957,,,,,,,,,,,,,,,,,,,,,,,,,,,,,,,,,,,,,,,,,,,,,,,,,,,,,,,738.3874124,738.4145957,738.4145957,741.0219079,1,2.6077743,,,,AC,1,2024-11-22_16h10.50.916,Disgust Thang,2024.1.5,None,2024-11-22 16h11.02.864651 +0530
,,,,,,,20,"Evidence gathered by the police, even if an honest mistake was made in getting a warrant, should be used to help prosecute suspected criminals. ",,,,,,,,,,,,,,,,,0,19,19,19,741.0480676,,,,,,,,,,,,,,,,,,,,,,,,,,,,,,,,,,,,,,,,,,,,,,,,,,,,,,,741.0222009,741.0480676,741.0480676,743.5763927,1,2.5286898,,,,AC,1,2024-11-22_16h10.50.916,Disgust Thang,2024.1.5,None,2024-11-22 16h11.02.864651 +0530
,,,,,,,21,Inter-religious marriages should be abolished.,,,,,,,,,,,,,,,,,0,20,20,20,743.5994482,,,,,,,,,,,,,,,,,,,,,,,,,,,,,,,,,,,,,,,,,,,,,,,,,,,,,,,743.5766737,743.5994482,743.5994482,747.626286,5,4.0268218,,,,AC,1,2024-11-22_16h10.50.916,Disgust Thang,2024.1.5,None,2024-11-22 16h11.02.864651 +0530
,,,,,,,22R,"Requirements for any military duty, including combat, should be based on physical, emotional, and intellectual abilities, not gender or sexual orientation.",,,,,,,,,,,,,,,,,0,21,21,21,747.6527334,,,,,,,,,,,,,,,,,,,,,,,,,,,,,,,,,,,,,,,,,,,,,,,,,,,,,,,747.6265862,747.6527334,747.6527334,749.8276673,5,2.1747646,,,,AC,1,2024-11-22_16h10.50.916,Disgust Thang,2024.1.5,None,2024-11-22 16h11.02.864651 +0530
,,,,,,,23R,The law should make private employers hire minorities if they are qualified because they have been victims of discrimination in the past. ,,,,,,,,,,,,,,,,,0,22,22,22,749.8537381,,,,,,,,,,,,,,,,,,,,,,,,,,,,,,,,,,,,,,,,,,,,,,,,,,,,,,,749.8279576,749.8537381,749.8537381,753.476162,5,3.6216392,,,,AC,1,2024-11-22_16h10.50.916,Disgust Thang,2024.1.5,None,2024-11-22 16h11.02.864651 +0530
,,,,,,,24,Certain literature should be banned from city libraries if the librarian feels it is improper or too controversial.,,,,,,,,,,,,,,,,,0,23,23,23,753.5022742,,,,,,,,,,,,,,,,,,,,,,,,,,,,,,,,,,,,,,,,,,,,,,,,,,,,,,,753.4764279,753.5022742,753.5022742,759.5300153,1,6.0280994,,,,AC,1,2024-11-22_16h10.50.916,Disgust Thang,2024.1.5,None,2024-11-22 16h11.02.864651 +0530
,,,,,,,25R,The government should interfere during conversion from one religion to another.,,,,,,,,,,,,,,,,,0,24,24,24,759.5549353,,,,,,,,,,,,,,,,,,,,,,,,,,,,,,,,,,,,,,,,,,,,,,,,,,,,,,,759.5302926,759.5549353,759.5549353,762.9903312,1,3.4356381,,,,AC,1,2024-11-22_16h10.50.916,Disgust Thang,2024.1.5,None,2024-11-22 16h11.02.864651 +0530
,,,,,,,26R,The government should spend less on the military and more on education and the environment.,,,,,,,,,,,,,,,,,0,25,25,25,763.0149973,,,,,,,,,,,,,,,,,,,,,,,,,,,,,,,,,,,,,,,,,,,,,,,,,,,,,,,762.9906326,763.0149973,763.0149973,763.8356583,1,0.8202435,,,,AC,1,2024-11-22_16h10.50.916,Disgust Thang,2024.1.5,None,2024-11-22 16h11.02.864651 +0530
,,,,,,,27R,India should not trade with or help any nation that violates human rights.,,,,,,,,,,,,,,,,,0,26,26,26,763.8598827,,,,,,,,,,,,,,,,,,,,,,,,,,,,,,,,,,,,,,,,,,,,,,,,,,,,,,,763.8359418,763.8598827,763.8598827,768.0171875,1,4.1574215,,,,AC,1,2024-11-22_16h10.50.916,Disgust Thang,2024.1.5,None,2024-11-22 16h11.02.864651 +0530
,,,,,,,28,People planning to get married should have a mandatory test for STDs such as AIDS and gonorrhea before a marriage certificate can be issued. ,,,,,,,,,,,,,,,,,0,27,27,27,768.0461059,,,,,,,,,,,,,,,,,,,,,,,,,,,,,,,,,,,,,,,,,,,,,,,,,,,,,,,768.0174625,768.0461059,768.0461059,768.9665744,1,0.9218126,,,,AC,1,2024-11-22_16h10.50.916,Disgust Thang,2024.1.5,None,2024-11-22 16h11.02.864651 +0530
,,,,,,,29,"There are too many lawsuits in the courts, and the courts do not have the time to deal with more severe issues. ",,,,,,,,,,,,,,,,,0,28,28,28,768.9906775,,,,,,,,,,,,,,,,,,,,,,,,,,,,,,,,,,,,,,,,,,,,,,,,,,,,,,,768.9668426,768.9906775,768.9906775,769.7172263,1,0.7263281,,,,AC,1,2024-11-22_16h10.50.916,Disgust Thang,2024.1.5,None,2024-11-22 16h11.02.864651 +0530
,,,,,,,30R,Nuclear power and nuclear-generating stations should be banned. ,,,,,,,,,,,,,,,,,0,29,29,29,769.7427314,,,,,,,,,,,,,,,,,,,,,,,,,,,,,,,,,,,,,,,,,,,,,,,,,,,,,,,769.7174962,769.7427314,769.7427314,770.2374133,1,0.491774,,,,AC,1,2024-11-22_16h10.50.916,Disgust Thang,2024.1.5,None,2024-11-22 16h11.02.864651 +0530
,,,,,,,31R,The death penalty is clearly a form of cruel and unusual punishment and should be banned. ,,,,,,,,,,,,,,,,,0,30,30,30,770.2617672,,,,,,,,,,,,,,,,,,,,,,,,,,,,,,,,,,,,,,,,,,,,,,,,,,,,,,,770.2376765,770.2617672,770.2617672,772.1661275,1,1.9050238,,,,AC,1,2024-11-22_16h10.50.916,Disgust Thang,2024.1.5,None,2024-11-22 16h11.02.864651 +0530
,,,,,,,32R,Sexual harassment of women in the workplace is a serious problem and should be prosecuted under law,,,,,,,,,,,,,,,,,0,31,31,31,772.1904833,,,,,,,,,,,,,,,,,,,,,,,,,,,,,,,,,,,,,,,,,,,,,,,,,,,,,,,772.1663881,772.1904833,772.1904833,773.3400394,1,1.1493474,,,,AC,1,2024-11-22_16h10.50.916,Disgust Thang,2024.1.5,None,2024-11-22 16h11.02.864651 +0530
,,,,,,,33R,"The primary function of prisons should be to rehabilitate criminals, not to punish them. ",,,,,,,,,,,,,,,,,0,32,32,32,773.3649085,,,,,,,,,,,,,,,,,,,,,,,,,,,,,,,,,,,,,,,,,,,,,,,,,,,,,,,773.3403264,773.3649085,773.3649085,781.4913423,4,8.1258304,,,,AC,1,2024-11-22_16h10.50.916,Disgust Thang,2024.1.5,None,2024-11-22 16h11.02.864651 +0530
,,,,,,,34R,The states should abolish criminal penalties for victimless crimes such as gambling and prostitution. ,,,,,,,,,,,,,,,,,0,33,33,33,781.5174959,,,,,,,,,,,,,,,,,,,,,,,,,,,,,,,,,,,,,,,,,,,,,,,,,,,,,,,781.4916808,781.5174959,781.5174959,783.1862192,4,1.6697198,,,,AC,1,2024-11-22_16h10.50.916,Disgust Thang,2024.1.5,None,2024-11-22 16h11.02.864651 +0530
,,,,,,,35,The CBI should be able to wiretap the phones and read the mail of suspected individuals.,,,,,,,,,,,,,,,,,0,34,34,34,783.2112056,,,,,,,,,,,,,,,,,,,,,,,,,,,,,,,,,,,,,,,,,,,,,,,,,,,,,,,783.1865017,783.2112056,783.2112056,784.1520776,4,0.9407761,,,,AC,1,2024-11-22_16h10.50.916,Disgust Thang,2024.1.5,None,2024-11-22 16h11.02.864651 +0530
,,,,,,,36R,"The central government must take strong steps to reverse global warming, even if it means losing some jobs. ",,,,,,,,,,,,,,,,,0,35,35,35,784.1772587,,,,,,,,,,,,,,,,,,,,,,,,,,,,,,,,,,,,,,,,,,,,,,,,,,,,,,,784.1523374,784.1772587,784.1772587,787.7696193,1,3.5926764,,,,AC,1,2024-11-22_16h10.50.916,Disgust Thang,2024.1.5,None,2024-11-22 16h11.02.864651 +0530
,,,,,,,37,Most youth who fall under the reservation scheme today are lazy and do not want to work.,,,,,,,,,,,,,,,,,0,36,36,36,787.7941615,,,,,,,,,,,,,,,,,,,,,,,,,,,,,,,,,,,,,,,,,,,,,,,,,,,,,,,787.7699055,787.7941615,787.7941615,788.7931065,1,0.9992579,,,,AC,1,2024-11-22_16h10.50.916,Disgust Thang,2024.1.5,None,2024-11-22 16h11.02.864651 +0530
,,,,,,,38,Profanity and sexually oriented material on television should be stopped or penalized by the government. ,,,,,,,,,,,,,,,,,0,37,37,37,788.818479,,,,,,,,,,,,,,,,,,,,,,,,,,,,,,,,,,,,,,,,,,,,,,,,,,,,,,,788.7933928,788.818479,788.818479,789.4382617,1,0.6193656,,,,AC,1,2024-11-22_16h10.50.916,Disgust Thang,2024.1.5,None,2024-11-22 16h11.02.864651 +0530
,,,,,,,39,"The government must stop the flow of immigrants, both legal and illegal, from Bangladesh.",,,,,,,,,,,,,,,,,0,38,38,38,789.4632747,,,,,,,,,,,,,,,,,,,,,,,,,,,,,,,,,,,,,,,,,,,,,,,,,,,,,,,789.4385346,789.4632747,789.4632747,791.1284696,1,1.6656223,,,,AC,1,2024-11-22_16h10.50.916,Disgust Thang,2024.1.5,None,2024-11-22 16h11.02.864651 +0530
,,,,,,,40R,There should be sensitization classes for individuals in the LGBTQ+ community in school.,,,,,,,,,,,,,,,,,0,39,39,39,791.1554626,,,,,,,,,,,,,,,,,,,,,,,,,,,,,,,,,,,,,,,,,,,,,,,,,,,,,,,791.1287312,791.1554626,791.1554626,795.3470822,5,4.1922285,,,,AC,1,2024-11-22_16h10.50.916,Disgust Thang,2024.1.5,None,2024-11-22 16h11.02.864651 +0530
,,,,,,,,,,,,,,,,,,,,,,,,,,,,,,,,,,,,,,,,,,,,,,,,,,,,,,,,,,,,,,,,,,,,,,,,,,,,,,,,,,,,,,,,,,795.347258,795.3601529,805.3593392,AC,1,2024-11-22_16h10.50.916,Disgust Thang,2024.1.5,None,2024-11-22 16h11.02.864651 +0530
