dsr1_no,dsr1,dsr2_no,dsr_e,math_q,correct_resp,image_disgust,no,pol_ques,trials_4.thisRepN,trials_4.thisTrialN,trials_4.thisN,trials_4.thisIndex,trials_5.thisRepN,trials_5.thisTrialN,trials_5.thisN,trials_5.thisIndex,trials_3.thisRepN,trials_3.thisTrialN,trials_3.thisN,trials_3.thisIndex,trials.thisRepN,trials.thisTrialN,trials.thisN,trials.thisIndex,trials_2.thisRepN,trials_2.thisTrialN,trials_2.thisN,trials_2.thisIndex,thisRow.t,notes,consent_form.started,text_10.started,button_2.started,consent_form.stopped,button_2.numClicks,button_2.timesOn,button_2.timesOff,Introduction.started,text_3.started,button.started,Introduction.stopped,button.numClicks,button.timesOn,button.timesOff,dsr_a.started,text_6.started,text_7.started,slider_3.started,dsr_a.stopped,slider_3.response,slider_3.rt,dsr_b.started,text_8.started,text_9.started,slider_4.started,dsr_b.stopped,slider_4.response,slider_4.rt,distractor.started,text.started,textbox.started,buton.started,distractor.stopped,textbox.text,buton.numClicks,buton.timesOn,buton.timesOff,encoding.started,polygon.started,image.started,polygon.stopped,slider.started,image.stopped,encoding.stopped,slider.response,slider.rt,instruction.started,text_4.started,Button.started,instruction.stopped,Button.numClicks,Button.timesOn,Button.timesOff,testing.started,text_2.started,slider_2.started,testing.stopped,slider_2.response,slider_2.rt,exit_message.started,text_5.started,exit_message.stopped,participant,session,date,expName,psychopyVersion,frameRate,expStart,
,,,,,,,,,,,,,,,,,,,,,,,,,,,,,,,0.004525399999693036,0.01198910002131015,0.01198910002131015,44.470323999994434,1,[44.46482379999361],[44.4648290000041],,,,,,,,,,,,,,,,,,,,,,,,,,,,,,,,,,,,,,,,,,,,,,,,,,,,,,,,SN,001,2024-11-22_17h12.15.406,Disgust Thang,2024.1.5,None,2024-11-22 17h12.35.045736 +0530,
,,,,,,,,,,,,,,,,,,,,,,,,,,,,,,,,,,,,,,44.47039400000358,44.485730900021736,44.485730900021736,47.75311750001856,1,[3.281706200010376],[3.2817119999963325],,,,,,,,,,,,,,,,,,,,,,,,,,,,,,,,,,,,,,,,,,,,,,,,,SN,001,2024-11-22_17h12.15.406,Disgust Thang,2024.1.5,None,2024-11-22 17h12.35.045736 +0530,
1r,"I might be willing to try eating monkey meat, under some circumstances",,,,,,,,0,0,0,0,,,,,,,,,,,,,,,,,47.812315500021214,,,,,,,,,,,,,,,,47.75842460000422,47.812315500021214,47.812315500021214,47.812315500021214,47.88693510001758,2.0,0.10476600000401959,,,,,,,,,,,,,,,,,,,,,,,,,,,,,,,,,,,,,,,,,,SN,001,2024-11-22_17h12.15.406,Disgust Thang,2024.1.5,None,2024-11-22 17h12.35.045736 +0530,
2,"It would bother me to be in a science class, and to see a human hand preserved in a jar",,,,,,,,0,1,1,1,,,,,,,,,,,,,,,,,47.90983370001777,,,,,,,,,,,,,,,,47.88727249999647,47.90983370001777,47.90983370001777,47.90983370001777,52.870336699998006,0.0,4.959194099996239,,,,,,,,,,,,,,,,,,,,,,,,,,,,,,,,,,,,,,,,,,SN,001,2024-11-22_17h12.15.406,Disgust Thang,2024.1.5,None,2024-11-22 17h12.35.045736 +0530,
3,It bothers me to hear someone clear a throat full of mucous,,,,,,,,0,2,2,2,,,,,,,,,,,,,,,,,52.89329930001986,,,,,,,,,,,,,,,,52.87059100001352,52.89329930001986,52.89329930001986,52.89329930001986,56.45333300001221,1.0,3.5611391000275034,,,,,,,,,,,,,,,,,,,,,,,,,,,,,,,,,,,,,,,,,,SN,001,2024-11-22_17h12.15.406,Disgust Thang,2024.1.5,None,2024-11-22 17h12.35.045736 +0530,
4,I never let any part of my body touch the toilet seat in public restrooms. ,,,,,,,,0,3,3,3,,,,,,,,,,,,,,,,,56.47520479999366,,,,,,,,,,,,,,,,56.45357730000978,56.47520479999366,56.47520479999366,56.47520479999366,60.38631530001294,2.0,3.9095552999933716,,,,,,,,,,,,,,,,,,,,,,,,,,,,,,,,,,,,,,,,,,SN,001,2024-11-22_17h12.15.406,Disgust Thang,2024.1.5,None,2024-11-22 17h12.35.045736 +0530,
5,I would go out of my way to avoid walking through a graveyard. ,,,,,,,,0,4,4,4,,,,,,,,,,,,,,,,,60.407853500015335,,,,,,,,,,,,,,,,60.38657160001458,60.407853500015335,60.407853500015335,60.407853500015335,64.10233110000263,1.0,3.6933964999916498,,,,,,,,,,,,,,,,,,,,,,,,,,,,,,,,,,,,,,,,,,SN,001,2024-11-22_17h12.15.406,Disgust Thang,2024.1.5,None,2024-11-22 17h12.35.045736 +0530,
6r,Seeing a cockroach in someone else's house doesn't bother me. ,,,,,,,,0,5,5,5,,,,,,,,,,,,,,,,,64.12536210002145,,,,,,,,,,,,,,,,64.10257820002153,64.12536210002145,64.12536210002145,64.12536210002145,68.2352834000194,1.0,4.108681999990949,,,,,,,,,,,,,,,,,,,,,,,,,,,,,,,,,,,,,,,,,,SN,001,2024-11-22_17h12.15.406,Disgust Thang,2024.1.5,None,2024-11-22 17h12.35.045736 +0530,
7,It would bother me tremendously to touch a dead body. ,,,,,,,,0,6,6,6,,,,,,,,,,,,,,,,,68.25692790001631,,,,,,,,,,,,,,,,68.23552300001029,68.25692790001631,68.25692790001631,68.25692790001631,73.21754220000003,2.0,4.9598602000041865,,,,,,,,,,,,,,,,,,,,,,,,,,,,,,,,,,,,,,,,,,SN,001,2024-11-22_17h12.15.406,Disgust Thang,2024.1.5,None,2024-11-22 17h12.35.045736 +0530,
8,"If I see someone vomit, it makes me sick to my stomach. ",,,,,,,,0,7,7,7,,,,,,,,,,,,,,,,,73.23877409999841,,,,,,,,,,,,,,,,73.2177789999987,73.23877409999841,73.23877409999841,73.23877409999841,76.03428079999867,1.0,2.794182899990119,,,,,,,,,,,,,,,,,,,,,,,,,,,,,,,,,,,,,,,,,,SN,001,2024-11-22_17h12.15.406,Disgust Thang,2024.1.5,None,2024-11-22 17h12.35.045736 +0530,
9,I probably would not go to my favorite restaurant if I found out that the cook had a cold. ,,,,,,,,0,8,8,8,,,,,,,,,,,,,,,,,76.05642110001645,,,,,,,,,,,,,,,,76.03452040001866,76.05642110001645,76.05642110001645,76.05642110001645,82.38349310000194,2.0,6.325870600005146,,,,,,,,,,,,,,,,,,,,,,,,,,,,,,,,,,,,,,,,,,SN,001,2024-11-22_17h12.15.406,Disgust Thang,2024.1.5,None,2024-11-22 17h12.35.045736 +0530,
10r,"It would not upset me at all to watch a person with a glass eye take the eye 
out of the socket.  ",,,,,,,,0,9,9,9,,,,,,,,,,,,,,,,,82.40669380000327,,,,,,,,,,,,,,,,82.38373780000256,82.40669380000327,82.40669380000327,82.40669380000327,88.34923610000988,0.0,5.9416650000202935,,,,,,,,,,,,,,,,,,,,,,,,,,,,,,,,,,,,,,,,,,SN,001,2024-11-22_17h12.15.406,Disgust Thang,2024.1.5,None,2024-11-22 17h12.35.045736 +0530,
11,It would bother me to see a rat run across my path in a park. ,,,,,,,,0,10,10,10,,,,,,,,,,,,,,,,,88.37093990002177,,,,,,,,,,,,,,,,88.34948840001016,88.37093990002177,88.37093990002177,88.37093990002177,91.11554490000708,0.0,2.7437077999929897,,,,,,,,,,,,,,,,,,,,,,,,,,,,,,,,,,,,,,,,,,SN,001,2024-11-22_17h12.15.406,Disgust Thang,2024.1.5,None,2024-11-22 17h12.35.045736 +0530,
12d,I would rather eat a piece of fruit than a piece of paper ,,,,,,,,0,11,11,11,,,,,,,,,,,,,,,,,91.13864509999985,,,,,,,,,,,,,,,,91.11578849999933,91.13864509999985,91.13864509999985,91.13864509999985,102.6475630000059,4.0,11.509836200013524,,,,,,,,,,,,,,,,,,,,,,,,,,,,,,,,,,,,,,,,,,SN,001,2024-11-22_17h12.15.406,Disgust Thang,2024.1.5,None,2024-11-22 17h12.35.045736 +0530,
13,"Even if I was hungry, I would not drink a bowl of my favorite soup if it had been
stirred by a used but thoroughly washed flyswatter. ",,,,,,,,0,12,12,12,,,,,,,,,,,,,,,,,102.67277669999748,,,,,,,,,,,,,,,,102.6478119000094,102.67277669999748,102.67277669999748,102.67277669999748,117.02901450000354,3.0,14.355418299994199,,,,,,,,,,,,,,,,,,,,,,,,,,,,,,,,,,,,,,,,,,SN,001,2024-11-22_17h12.15.406,Disgust Thang,2024.1.5,None,2024-11-22 17h12.35.045736 +0530,
14,"It would bother me to sleep in a nice hotel room if I knew that a man had died of a
heart attack in that room the night before. ",,,,,,,,0,13,13,13,,,,,,,,,,,,,,,,,117.05205530000967,,,,,,,,,,,,,,,,117.02925510000205,117.05205530000967,117.05205530000967,117.05205530000967,136.35951070001465,1.0,19.306491499999538,,,,,,,,,,,,,,,,,,,,,,,,,,,,,,,,,,,,,,,,,,SN,001,2024-11-22_17h12.15.406,Disgust Thang,2024.1.5,None,2024-11-22 17h12.35.045736 +0530,
,,15,You see maggots on a piece of meat in an outdoor garbage pail. ,,,,,,,,,,0,0,0,0,,,,,,,,,,,,,136.38774120001472,,,,,,,,,,,,,,,,,,,,,,,136.3644476000045,136.38774120001472,136.38774120001472,136.38774120001472,141.09213130001444,2.0,4.697456499998225,,,,,,,,,,,,,,,,,,,,,,,,,,,,,,,,,,,SN,001,2024-11-22_17h12.15.406,Disgust Thang,2024.1.5,None,2024-11-22 17h12.35.045736 +0530,
,,16d,You see a person eating an apple with a knife and fork,,,,,,,,,,0,1,1,1,,,,,,,,,,,,,141.1228029000049,,,,,,,,,,,,,,,,,,,,,,,141.09263920001104,141.1228029000049,141.1228029000049,141.1228029000049,145.5258346000046,0.0,4.40683480000007,,,,,,,,,,,,,,,,,,,,,,,,,,,,,,,,,,,SN,001,2024-11-22_17h12.15.406,Disgust Thang,2024.1.5,None,2024-11-22 17h12.35.045736 +0530,
,,17,"While you are walking through a tunnel under a railroad track, you smell urine. ",,,,,,,,,,0,2,2,2,,,,,,,,,,,,,145.55052740001702,,,,,,,,,,,,,,,,,,,,,,,145.5261006000219,145.55052740001702,145.55052740001702,145.55052740001702,149.02487300001667,1.0,3.474122300016461,,,,,,,,,,,,,,,,,,,,,,,,,,,,,,,,,,,SN,001,2024-11-22_17h12.15.406,Disgust Thang,2024.1.5,None,2024-11-22 17h12.35.045736 +0530,
,,18,"You take a sip of soda, and then realize that you drank from the glass that an
 		acquaintance of yours had been drinking from",,,,,,,,,,0,3,3,3,,,,,,,,,,,,,149.04997130000265,,,,,,,,,,,,,,,,,,,,,,,149.02512609999394,149.04997130000265,149.04997130000265,149.04997130000265,154.5740757000167,0.0,5.523431100009475,,,,,,,,,,,,,,,,,,,,,,,,,,,,,,,,,,,SN,001,2024-11-22_17h12.15.406,Disgust Thang,2024.1.5,None,2024-11-22 17h12.35.045736 +0530,
,,19,"Your friend's pet cat dies, and you have to pick up the dead body with your bare hands.  ",,,,,,,,,,0,4,4,4,,,,,,,,,,,,,154.59657900000457,,,,,,,,,,,,,,,,,,,,,,,154.5743564000004,154.59657900000457,154.59657900000457,154.59657900000457,157.807025600021,2.0,3.209808500017971,,,,,,,,,,,,,,,,,,,,,,,,,,,,,,,,,,,SN,001,2024-11-22_17h12.15.406,Disgust Thang,2024.1.5,None,2024-11-22 17h12.35.045736 +0530,
,,20,"You see someone put ketchup on vanilla ice cream, and eat it. ",,,,,,,,,,0,5,5,5,,,,,,,,,,,,,157.82850160001544,,,,,,,,,,,,,,,,,,,,,,,157.80726870000944,157.82850160001544,157.82850160001544,157.82850160001544,161.50658000001567,2.0,3.677140799991321,,,,,,,,,,,,,,,,,,,,,,,,,,,,,,,,,,,SN,001,2024-11-22_17h12.15.406,Disgust Thang,2024.1.5,None,2024-11-22 17h12.35.045736 +0530,
,,21,You see a man with his intestines exposed after an accident. ,,,,,,,,,,0,6,6,6,,,,,,,,,,,,,161.52785569999833,,,,,,,,,,,,,,,,,,,,,,,161.50682500001858,161.52785569999833,161.52785569999833,161.52785569999833,165.60605640002177,2.0,4.077879799995571,,,,,,,,,,,,,,,,,,,,,,,,,,,,,,,,,,,SN,001,2024-11-22_17h12.15.406,Disgust Thang,2024.1.5,None,2024-11-22 17h12.35.045736 +0530,
,,22,You discover that a friend of yours changes underwear only once a week. ,,,,,,,,,,0,7,7,7,,,,,,,,,,,,,165.6284369000059,,,,,,,,,,,,,,,,,,,,,,,165.6063078000152,165.6284369000059,165.6284369000059,165.6284369000059,168.07233749999432,3.0,2.443179699999746,,,,,,,,,,,,,,,,,,,,,,,,,,,,,,,,,,,SN,001,2024-11-22_17h12.15.406,Disgust Thang,2024.1.5,None,2024-11-22 17h12.35.045736 +0530,
,,23,A friend offers you a piece of chocolate shaped like dog doo. ,,,,,,,,,,0,8,8,8,,,,,,,,,,,,,168.09417670001858,,,,,,,,,,,,,,,,,,,,,,,168.07257330001448,168.09417670001858,168.09417670001858,168.09417670001858,171.0220784000121,2.0,2.9265567999973428,,,,,,,,,,,,,,,,,,,,,,,,,,,,,,,,,,,SN,001,2024-11-22_17h12.15.406,Disgust Thang,2024.1.5,None,2024-11-22 17h12.35.045736 +0530,
,,24,You accidentally touch the ashes of a person who has been cremated. ,,,,,,,,,,0,9,9,9,,,,,,,,,,,,,171.04382829999668,,,,,,,,,,,,,,,,,,,,,,,171.02232849999564,171.04382829999668,171.04382829999668,171.04382829999668,173.88946080001188,1.0,2.8435945000092033,,,,,,,,,,,,,,,,,,,,,,,,,,,,,,,,,,,SN,001,2024-11-22_17h12.15.406,Disgust Thang,2024.1.5,None,2024-11-22 17h12.35.045736 +0530,
,,25,You are about to drink a glass of milk when you smell that it is spoiled. ,,,,,,,,,,0,10,10,10,,,,,,,,,,,,,173.91178809999838,,,,,,,,,,,,,,,,,,,,,,,173.88972790000844,173.91178809999838,173.91178809999838,173.91178809999838,178.72120810000342,2.0,4.8086930999998,,,,,,,,,,,,,,,,,,,,,,,,,,,,,,,,,,,SN,001,2024-11-22_17h12.15.406,Disgust Thang,2024.1.5,None,2024-11-22 17h12.35.045736 +0530,
,,26,"As part of a sex education class, you are required to inflate a new unlubricated
		condom, using your mouth. ",,,,,,,,,,0,11,11,11,,,,,,,,,,,,,178.74389959999826,,,,,,,,,,,,,,,,,,,,,,,178.721452400001,178.74389959999826,178.74389959999826,178.74389959999826,186.7033330000122,1.0,7.958826699992642,,,,,,,,,,,,,,,,,,,,,,,,,,,,,,,,,,,SN,001,2024-11-22_17h12.15.406,Disgust Thang,2024.1.5,None,2024-11-22 17h12.35.045736 +0530,
,,27,"You are walking barefoot on concrete, and you step on an earthworm. ",,,,,,,,,,0,12,12,12,,,,,,,,,,,,,186.7265263000154,,,,,,,,,,,,,,,,,,,,,,,186.7035906999954,186.7265263000154,186.7265263000154,186.7265263000154,194.48564230001648,3.0,7.759120500006247,,,,,,,,,,,,,,,,,,,,,,,,,,,,,,,,,,,SN,001,2024-11-22_17h12.15.406,Disgust Thang,2024.1.5,None,2024-11-22 17h12.35.045736 +0530,
,,,,15-7,8,,,,,,,,,,,,0,0,0,0,,,,,,,,,194.51060050001252,,,,,,,,,,,,,,,,,,,,,,,,,,,,,,194.4898131999944,194.51060050001252,194.51060050001252,194.51060050001252,207.01562180000474,8,1,[12.52154050001991],[12.521546100004343],,,,,,,,,,,,,,,,,,,,,,,,,,SN,001,2024-11-22_17h12.15.406,Disgust Thang,2024.1.5,None,2024-11-22 17h12.35.045736 +0530,
,,,,5*7,35,,,,,,,,,,,,0,1,1,1,,,,,,,,,207.03121360001387,,,,,,,,,,,,,,,,,,,,,,,,,,,,,,207.01612569999998,207.03121360001387,207.03121360001387,207.03121360001387,211.11520890000975,"35
",1,[4.0958375000045635],[4.095843599992804],,,,,,,,,,,,,,,,,,,,,,,,,,SN,001,2024-11-22_17h12.15.406,Disgust Thang,2024.1.5,None,2024-11-22 17h12.35.045736 +0530,
,,,,42/7,6,,,,,,,,,,,,0,2,2,2,,,,,,,,,211.13075840001693,,,,,,,,,,,,,,,,,,,,,,,,,,,,,,211.11556860001292,211.13075840001693,211.13075840001693,211.13075840001693,213.43153880001046,6,1,[2.31175599998096],[2.311761499993736],,,,,,,,,,,,,,,,,,,,,,,,,,SN,001,2024-11-22_17h12.15.406,Disgust Thang,2024.1.5,None,2024-11-22 17h12.35.045736 +0530,
,,,,51-17,34,,,,,,,,,,,,0,3,3,3,,,,,,,,,213.4469197000144,,,,,,,,,,,,,,,,,,,,,,,,,,,,,,213.43192220001947,213.4469197000144,213.4469197000144,213.4469197000144,214.03134630000568,,1,[0.5966176000074483],[0.5966231999918818],,,,,,,,,,,,,,,,,,,,,,,,,,SN,001,2024-11-22_17h12.15.406,Disgust Thang,2024.1.5,None,2024-11-22 17h12.35.045736 +0530,
,,,,19*8,152,,,,,,,,,,,,0,4,4,4,,,,,,,,,214.04690919999848,,,,,,,,,,,,,,,,,,,,,,,,,,,,,,214.0316976000031,214.04690919999848,214.04690919999848,214.04690919999848,242.86097969999537,152,1,[28.8252269999939],[28.825233100011246],,,,,,,,,,,,,,,,,,,,,,,,,,SN,001,2024-11-22_17h12.15.406,Disgust Thang,2024.1.5,None,2024-11-22 17h12.35.045736 +0530,
,,,,6* (25+3),168,,,,,,,,,,,,0,5,5,5,,,,,,,,,242.87651830000686,,,,,,,,,,,,,,,,,,,,,,,,,,,,,,242.8613206000009,242.87651830000686,242.87651830000686,242.87651830000686,253.55962830001954,168,1,[10.693438300018897],[10.693443500000285],,,,,,,,,,,,,,,,,,,,,,,,,,SN,001,2024-11-22_17h12.15.406,Disgust Thang,2024.1.5,None,2024-11-22 17h12.35.045736 +0530,
,,,,,,images/1171_injuries_infections.png,,,,,,,,,,,,,,,0,0,0,4,,,,,253.59041259999503,,,,,,,,,,,,,,,,,,,,,,,,,,,,,,,,,,,,,,,253.564062200021,253.59041259999503,254.58256390001043,254.59235799999442,261.57470420000027,264.59043790001306,267.62642109999433,3.062962962962963,14.026557699980913,,,,,,,,,,,,,,,,,SN,001,2024-11-22_17h12.15.406,Disgust Thang,2024.1.5,None,2024-11-22 17h12.35.045736 +0530,
,,,,,,images/1034_food.png,,,,,,,,,,,,,,,0,1,1,1,,,,,267.65235469999607,,,,,,,,,,,,,,,,,,,,,,,,,,,,,,,,,,,,,,,267.6267532000202,267.65235469999607,268.6411594999954,268.65731920002145,275.63906190000125,278.6553595000005,282.2076206000056,1.9962962962962962,14.54508429998532,,,,,,,,,,,,,,,,,SN,001,2024-11-22_17h12.15.406,Disgust Thang,2024.1.5,None,2024-11-22 17h12.35.045736 +0530,
,,,,,,images/1033_food.png,,,,,,,,,,,,,,,0,2,2,0,,,,,282.23238920001313,,,,,,,,,,,,,,,,,,,,,,,,,,,,,,,,,,,,,,,282.20785080001224,282.23238920001313,283.2228819000011,283.2387182000093,290.2205998999998,,291.940115800011,2.988888888888889,9.697612099989783,,,,,,,,,,,,,,,,,SN,001,2024-11-22_17h12.15.406,Disgust Thang,2024.1.5,None,2024-11-22 17h12.35.045736 +0530,
,,,,,,images/1110_body products.png,,,,,,,,,,,,,,,0,3,3,2,,,,,291.9664982999966,,,,,,,,,,,,,,,,,,,,,,,,,,,,,,,,,,,,,,,291.9403408000071,291.9664982999966,292.95495360001223,292.97076769999694,299.95273700001417,,301.1718393000192,2.0185185185185186,9.195726600009948,,,,,,,,,,,,,,,,,SN,001,2024-11-22_17h12.15.406,Disgust Thang,2024.1.5,None,2024-11-22 17h12.35.045736 +0530,
,,,,,,images/1253_hygiene.png,,,,,,,,,,,,,,,0,4,4,8,,,,,301.19783489999827,,,,,,,,,,,,,,,,,,,,,,,,,,,,,,,,,,,,,,,301.17207050000434,301.19783489999827,302.18707580000046,302.2030231000099,309.18468470001244,,310.92086169999675,2.0444444444444443,9.713194100011606,,,,,,,,,,,,,,,,,SN,001,2024-11-22_17h12.15.406,Disgust Thang,2024.1.5,None,2024-11-22 17h12.35.045736 +0530,
,,,,,,images/1201_death.png,,,,,,,,,,,,,,,0,5,5,6,,,,,310.95094609999796,,,,,,,,,,,,,,,,,,,,,,,,,,,,,,,,,,,,,,,310.92107260000193,310.95094609999796,311.9358719000011,311.95171350002056,318.93353000000934,,321.6694472999952,3.9518518518518517,10.708971300016856,,,,,,,,,,,,,,,,,SN,001,2024-11-22_17h12.15.406,Disgust Thang,2024.1.5,None,2024-11-22 17h12.35.045736 +0530,
,,,,,,images/1118_body products.png,,,,,,,,,,,,,,,0,6,6,3,,,,,321.6945931999944,,,,,,,,,,,,,,,,,,,,,,,,,,,,,,,,,,,,,,,321.66968809999526,321.6945931999944,322.68439020001097,322.7003272000002,329.6820409000211,,330.70138000001316,2.9074074074074074,8.99695870000869,,,,,,,,,,,,,,,,,SN,001,2024-11-22_17h12.15.406,Disgust Thang,2024.1.5,None,2024-11-22 17h12.35.045736 +0530,
,,,,,,images/1182_injuries_infections.png,,,,,,,,,,,,,,,0,7,7,5,,,,,330.7248249000113,,,,,,,,,,,,,,,,,,,,,,,,,,,,,,,,,,,,,,,330.7016261999961,330.7248249000113,331.71658199999365,331.73244479999994,338.71438020002097,,339.9170757000102,3.0074074074074075,9.182232299994212,,,,,,,,,,,,,,,,,SN,001,2024-11-22_17h12.15.406,Disgust Thang,2024.1.5,None,2024-11-22 17h12.35.045736 +0530,
,,,,,,images/1218_death.png,,,,,,,,,,,,,,,0,8,8,7,,,,,339.9425759000005,,,,,,,,,,,,,,,,,,,,,,,,,,,,,,,,,,,,,,,339.9172896000091,339.9425759000005,340.93214730001637,340.9480092000158,347.9297293999989,,348.7500421000004,3.0074074074074075,8.7967534000054,,,,,,,,,,,,,,,,,SN,001,2024-11-22_17h12.15.406,Disgust Thang,2024.1.5,None,2024-11-22 17h12.35.045736 +0530,
,,,,,,,,,,,,,,,,,,,,,,,,,,,,,,,,,,,,,,,,,,,,,,,,,,,,,,,,,,,,,,,,,,,,,,,,,,,,,348.7503426000185,348.76325240000733,348.76325240000733,356.0635530000145,1,[7.31212799999048],[7.312133899977198],,,,,,,,,,SN,001,2024-11-22_17h12.15.406,Disgust Thang,2024.1.5,None,2024-11-22 17h12.35.045736 +0530,
,,,,,,,1R,The government should pass a Constitutional amendment that would make it illegal to discriminate against anyone in any situation based on sexual orientation.,,,,,,,,,,,,,,,,,0,0,0,0,356.0979183000163,,,,,,,,,,,,,,,,,,,,,,,,,,,,,,,,,,,,,,,,,,,,,,,,,,,,,,,356.07019719999516,356.0979183000163,356.0979183000163,356.18404740002006,3.0,0.09122470000875182,,,,SN,001,2024-11-22_17h12.15.406,Disgust Thang,2024.1.5,None,2024-11-22 17h12.35.045736 +0530,
,,,,,,,2R,"The national government should establish a centrally funded medical program so that all persons, regardless of means, have access to medical care.",,,,,,,,,,,,,,,,,0,1,1,1,356.2050489000103,,,,,,,,,,,,,,,,,,,,,,,,,,,,,,,,,,,,,,,,,,,,,,,,,,,,,,,356.18435480000335,356.2050489000103,356.2050489000103,362.3971050000109,2.0,6.189283300016541,,,,SN,001,2024-11-22_17h12.15.406,Disgust Thang,2024.1.5,None,2024-11-22 17h12.35.045736 +0530,
,,,,,,,3,It should be legal and constitutional to say a prayer at the beginning of assemblies in public schools.,,,,,,,,,,,,,,,,,0,2,2,2,362.41722319999826,,,,,,,,,,,,,,,,,,,,,,,,,,,,,,,,,,,,,,,,,,,,,,,,,,,,,,,362.3973288999987,362.41722319999826,362.41722319999826,365.9801284999994,4.0,3.5600708999845665,,,,SN,001,2024-11-22_17h12.15.406,Disgust Thang,2024.1.5,None,2024-11-22 17h12.35.045736 +0530,
,,,,,,,4R,Persons should be allowed to join and serve in the military regardless of their sexual preference as long as their behavior meets strict military standards.,,,,,,,,,,,,,,,,,0,3,3,3,366.003146300005,,,,,,,,,,,,,,,,,,,,,,,,,,,,,,,,,,,,,,,,,,,,,,,,,,,,,,,365.98037320000003,366.003146300005,366.003146300005,374.12891600001603,1.0,8.124049500009278,,,,SN,001,2024-11-22_17h12.15.406,Disgust Thang,2024.1.5,None,2024-11-22 17h12.35.045736 +0530,
,,,,,,,5R,A person should be able to use and grow small quantities of marijuana in the privacy of his or her own home with no legal consequences.,,,,,,,,,,,,,,,,,0,4,4,4,374.15143319999333,,,,,,,,,,,,,,,,,,,,,,,,,,,,,,,,,,,,,,,,,,,,,,,,,,,,,,,374.1291590000037,374.15143319999333,374.15143319999333,376.3785751000105,2.0,2.22533369998564,,,,SN,001,2024-11-22_17h12.15.406,Disgust Thang,2024.1.5,None,2024-11-22 17h12.35.045736 +0530,
,,,,,,,6,"Persons receiving the death penalty should be limited in their number of appeals, and the death sentence should be carried out in a shorter time period than it is now.",,,,,,,,,,,,,,,,,0,5,5,5,376.4011792000092,,,,,,,,,,,,,,,,,,,,,,,,,,,,,,,,,,,,,,,,,,,,,,,,,,,,,,,376.3788123000122,376.4011792000092,376.4011792000092,386.3774108000216,3.0,9.97441070000059,,,,SN,001,2024-11-22_17h12.15.406,Disgust Thang,2024.1.5,None,2024-11-22 17h12.35.045736 +0530,
,,,,,,,7,The government should reverse its decision on abortion and make it more challenging to have an abortion except in special cases such as rape and incest. ,,,,,,,,,,,,,,,,,0,6,6,6,386.40118889999576,,,,,,,,,,,,,,,,,,,,,,,,,,,,,,,,,,,,,,,,,,,,,,,,,,,,,,,386.37765390001005,386.40118889999576,386.40118889999576,392.96001530002104,4.0,6.557379000005312,,,,SN,001,2024-11-22_17h12.15.406,Disgust Thang,2024.1.5,None,2024-11-22 17h12.35.045736 +0530,
,,,,,,,8,India should require one year of military service for all able-bodied people.,,,,,,,,,,,,,,,,,0,7,7,7,392.9823942000221,,,,,,,,,,,,,,,,,,,,,,,,,,,,,,,,,,,,,,,,,,,,,,,,,,,,,,,392.9602676000213,392.9823942000221,392.9823942000221,396.0427900000068,4.0,3.0591273000172805,,,,SN,001,2024-11-22_17h12.15.406,Disgust Thang,2024.1.5,None,2024-11-22 17h12.35.045736 +0530,
,,,,,,,9,"Parents should be able to send their children to any school they choose, and tax money should be used to support the schools that parents choose.",,,,,,,,,,,,,,,,,0,8,8,8,396.0644642999978,,,,,,,,,,,,,,,,,,,,,,,,,,,,,,,,,,,,,,,,,,,,,,,,,,,,,,,396.04304910000064,396.0644642999978,396.0644642999978,400.2256464000093,4.0,4.158933600003365,,,,SN,001,2024-11-22_17h12.15.406,Disgust Thang,2024.1.5,None,2024-11-22 17h12.35.045736 +0530,
,,,,,,,10,Police should be able to confiscate any materials that are deemed to be obscene or pornographic. ,,,,,,,,,,,,,,,,,0,9,9,9,400.2472608000098,,,,,,,,,,,,,,,,,,,,,,,,,,,,,,,,,,,,,,,,,,,,,,,,,,,,,,,400.22588320000796,400.2472608000098,400.2472608000098,405.5750027000031,3.0,5.326013700017938,,,,SN,001,2024-11-22_17h12.15.406,Disgust Thang,2024.1.5,None,2024-11-22 17h12.35.045736 +0530,
,,,,,,,11,The central government should be required to have a balanced budget that does not spend more than the money that comes in from taxes,,,,,,,,,,,,,,,,,0,10,10,10,405.5974994999997,,,,,,,,,,,,,,,,,,,,,,,,,,,,,,,,,,,,,,,,,,,,,,,,,,,,,,,405.57524830001057,405.5974994999997,405.5974994999997,417.1401730000216,4.0,11.540612700016936,,,,SN,001,2024-11-22_17h12.15.406,Disgust Thang,2024.1.5,None,2024-11-22 17h12.35.045736 +0530,
,,,,,,,12R, Laws that limit the sale of fireworks and other explosive materials that are not intended for legitimate cultural or religious purposes should be passed.,,,,,,,,,,,,,,,,,0,11,11,11,417.1645437999978,,,,,,,,,,,,,,,,,,,,,,,,,,,,,,,,,,,,,,,,,,,,,,,,,,,,,,,417.1404188000015,417.1645437999978,417.1645437999978,424.62247890001163,3.0,7.456134599982761,,,,SN,001,2024-11-22_17h12.15.406,Disgust Thang,2024.1.5,None,2024-11-22 17h12.35.045736 +0530,
,,,,,,,13R,Sex education should be in taught all public schools and all students should be required to take the class unless exempted by parents. ,,,,,,,,,,,,,,,,,0,12,12,12,424.6454301000049,,,,,,,,,,,,,,,,,,,,,,,,,,,,,,,,,,,,,,,,,,,,,,,,,,,,,,,424.6227242000168,424.6454301000049,424.6454301000049,428.08866130001843,1.0,3.441457700013416,,,,SN,001,2024-11-22_17h12.15.406,Disgust Thang,2024.1.5,None,2024-11-22 17h12.35.045736 +0530,
,,,,,,,14,Reservation system should be abolished in India. ,,,,,,,,,,,,,,,,,0,13,13,13,428.1100003000174,,,,,,,,,,,,,,,,,,,,,,,,,,,,,,,,,,,,,,,,,,,,,,,,,,,,,,,428.0889009000093,428.1100003000174,428.1100003000174,431.6050359000219,4.0,3.4930573999881744,,,,SN,001,2024-11-22_17h12.15.406,Disgust Thang,2024.1.5,None,2024-11-22 17h12.35.045736 +0530,
,,,,,,,15,"The Prime Minister, without permission from the President, should be able to use the armed forces and call for an emergency in possible combat areas for as long as he/she deems necessary. ",,,,,,,,,,,,,,,,,0,14,14,14,431.62938420000137,,,,,,,,,,,,,,,,,,,,,,,,,,,,,,,,,,,,,,,,,,,,,,,,,,,,,,,431.6052757000143,431.62938420000137,431.62938420000137,435.0378643000149,2.0,3.40653890001704,,,,SN,001,2024-11-22_17h12.15.406,Disgust Thang,2024.1.5,None,2024-11-22 17h12.35.045736 +0530,
,,,,,,,16R,"Laws should be passed to make it legal for public employees such as police, firemen, teachers, and garbage collectors to go on strike. ",,,,,,,,,,,,,,,,,0,15,15,15,435.0609006000159,,,,,,,,,,,,,,,,,,,,,,,,,,,,,,,,,,,,,,,,,,,,,,,,,,,,,,,435.0381093000178,435.0609006000159,435.0609006000159,450.00270949999685,3.0,14.940406300011091,,,,SN,001,2024-11-22_17h12.15.406,Disgust Thang,2024.1.5,None,2024-11-22 17h12.35.045736 +0530,
,,,,,,,17,Public schools should be required to teach the world's creation as written in the Bhagavad Gita in all classes that teach evolution theory.,,,,,,,,,,,,,,,,,0,16,16,16,450.02802359999623,,,,,,,,,,,,,,,,,,,,,,,,,,,,,,,,,,,,,,,,,,,,,,,,,,,,,,,450.00296230000095,450.02802359999623,450.02802359999623,456.83498189999955,5.0,6.805425800004741,,,,SN,001,2024-11-22_17h12.15.406,Disgust Thang,2024.1.5,None,2024-11-22 17h12.35.045736 +0530,
,,,,,,,18,"The government should mandate family planning counseling and reversible sterilization for low-income, unmarried women with three or more children. ",,,,,,,,,,,,,,,,,0,17,17,17,456.8573722000001,,,,,,,,,,,,,,,,,,,,,,,,,,,,,,,,,,,,,,,,,,,,,,,,,,,,,,,456.8352231000026,456.8573722000001,456.8573722000001,466.3338233999966,3.0,9.47421139999642,,,,SN,001,2024-11-22_17h12.15.406,Disgust Thang,2024.1.5,None,2024-11-22 17h12.35.045736 +0530,
,,,,,,,19R,"Birth control information, non-prescription contraceptive devices, and the morning-after pill should be made available on college campuses.",,,,,,,,,,,,,,,,,0,18,18,18,466.35716220000177,,,,,,,,,,,,,,,,,,,,,,,,,,,,,,,,,,,,,,,,,,,,,,,,,,,,,,,466.33406809999724,466.35716220000177,466.35716220000177,469.0668474000122,2.0,2.7078508000122383,,,,SN,001,2024-11-22_17h12.15.406,Disgust Thang,2024.1.5,None,2024-11-22 17h12.35.045736 +0530,
,,,,,,,20,"Evidence gathered by the police, even if an honest mistake was made in getting a warrant, should be used to help prosecute suspected criminals. ",,,,,,,,,,,,,,,,,0,19,19,19,469.0896231000079,,,,,,,,,,,,,,,,,,,,,,,,,,,,,,,,,,,,,,,,,,,,,,,,,,,,,,,469.06709430000046,469.0896231000079,469.0896231000079,482.14841720002005,3.0,13.056975599989528,,,,SN,001,2024-11-22_17h12.15.406,Disgust Thang,2024.1.5,None,2024-11-22 17h12.35.045736 +0530,
,,,,,,,21,Inter-religious marriages should be abolished.,,,,,,,,,,,,,,,,,0,20,20,20,482.1686158000084,,,,,,,,,,,,,,,,,,,,,,,,,,,,,,,,,,,,,,,,,,,,,,,,,,,,,,,482.1486667999998,482.1686158000084,482.1686158000084,484.5484015000111,5.0,2.3773961999977473,,,,SN,001,2024-11-22_17h12.15.406,Disgust Thang,2024.1.5,None,2024-11-22 17h12.35.045736 +0530,
,,,,,,,22R,"Requirements for any military duty, including combat, should be based on physical, emotional, and intellectual abilities, not gender or sexual orientation.",,,,,,,,,,,,,,,,,0,21,21,21,484.570504000003,,,,,,,,,,,,,,,,,,,,,,,,,,,,,,,,,,,,,,,,,,,,,,,,,,,,,,,484.5486393000174,484.570504000003,484.570504000003,494.1471090000123,1.0,9.574490200000582,,,,SN,001,2024-11-22_17h12.15.406,Disgust Thang,2024.1.5,None,2024-11-22 17h12.35.045736 +0530,
,,,,,,,23R,The law should make private employers hire minorities if they are qualified because they have been victims of discrimination in the past. ,,,,,,,,,,,,,,,,,0,22,22,22,494.17018310001004,,,,,,,,,,,,,,,,,,,,,,,,,,,,,,,,,,,,,,,,,,,,,,,,,,,,,,,494.1473554999975,494.17018310001004,494.17018310001004,508.2617811000091,3.0,14.090192400006345,,,,SN,001,2024-11-22_17h12.15.406,Disgust Thang,2024.1.5,None,2024-11-22 17h12.35.045736 +0530,
,,,,,,,24,Certain literature should be banned from city libraries if the librarian feels it is improper or too controversial.,,,,,,,,,,,,,,,,,0,23,23,23,508.28454530000454,,,,,,,,,,,,,,,,,,,,,,,,,,,,,,,,,,,,,,,,,,,,,,,,,,,,,,,508.26202620001277,508.28454530000454,508.28454530000454,518.9104527000163,2.0,10.624868500017328,,,,SN,001,2024-11-22_17h12.15.406,Disgust Thang,2024.1.5,None,2024-11-22 17h12.35.045736 +0530,
,,,,,,,25R,The government should interfere during conversion from one religion to another.,,,,,,,,,,,,,,,,,0,24,24,24,518.9320585000096,,,,,,,,,,,,,,,,,,,,,,,,,,,,,,,,,,,,,,,,,,,,,,,,,,,,,,,518.9106932000141,518.9320585000096,518.9320585000096,521.0100248999952,5.0,2.0764166000008117,,,,SN,001,2024-11-22_17h12.15.406,Disgust Thang,2024.1.5,None,2024-11-22 17h12.35.045736 +0530,
,,,,,,,26R,The government should spend less on the military and more on education and the environment.,,,,,,,,,,,,,,,,,0,25,25,25,521.0310430999962,,,,,,,,,,,,,,,,,,,,,,,,,,,,,,,,,,,,,,,,,,,,,,,,,,,,,,,521.010267900012,521.0310430999962,521.0310430999962,528.642643500003,2.0,7.609465300018201,,,,SN,001,2024-11-22_17h12.15.406,Disgust Thang,2024.1.5,None,2024-11-22 17h12.35.045736 +0530,
,,,,,,,27R,India should not trade with or help any nation that violates human rights.,,,,,,,,,,,,,,,,,0,26,26,26,528.6637072000012,,,,,,,,,,,,,,,,,,,,,,,,,,,,,,,,,,,,,,,,,,,,,,,,,,,,,,,528.6428842000023,528.6637072000012,528.6637072000012,531.7922416999936,3.0,3.126491100003477,,,,SN,001,2024-11-22_17h12.15.406,Disgust Thang,2024.1.5,None,2024-11-22 17h12.35.045736 +0530,
,,,,,,,28,People planning to get married should have a mandatory test for STDs such as AIDS and gonorrhea before a marriage certificate can be issued. ,,,,,,,,,,,,,,,,,0,27,27,27,531.815399300016,,,,,,,,,,,,,,,,,,,,,,,,,,,,,,,,,,,,,,,,,,,,,,,,,,,,,,,531.7924820000189,531.815399300016,531.815399300016,537.6914453000063,1.0,5.873804100003326,,,,SN,001,2024-11-22_17h12.15.406,Disgust Thang,2024.1.5,None,2024-11-22 17h12.35.045736 +0530,
,,,,,,,29,"There are too many lawsuits in the courts, and the courts do not have the time to deal with more severe issues. ",,,,,,,,,,,,,,,,,0,28,28,28,537.713173600001,,,,,,,,,,,,,,,,,,,,,,,,,,,,,,,,,,,,,,,,,,,,,,,,,,,,,,,537.691693700006,537.713173600001,537.713173600001,540.7077155000006,2.0,2.992685100005474,,,,SN,001,2024-11-22_17h12.15.406,Disgust Thang,2024.1.5,None,2024-11-22 17h12.35.045736 +0530,
,,,,,,,30R,Nuclear power and nuclear-generating stations should be banned. ,,,,,,,,,,,,,,,,,0,29,29,29,540.7292834999971,,,,,,,,,,,,,,,,,,,,,,,,,,,,,,,,,,,,,,,,,,,,,,,,,,,,,,,540.7079625000188,540.7292834999971,540.7292834999971,542.9407874000026,4.0,2.209396599995671,,,,SN,001,2024-11-22_17h12.15.406,Disgust Thang,2024.1.5,None,2024-11-22 17h12.35.045736 +0530,
,,,,,,,31R,The death penalty is clearly a form of cruel and unusual punishment and should be banned. ,,,,,,,,,,,,,,,,,0,30,30,30,542.9618092000019,,,,,,,,,,,,,,,,,,,,,,,,,,,,,,,,,,,,,,,,,,,,,,,,,,,,,,,542.9410269999935,542.9618092000019,542.9618092000019,545.5738583000202,3.0,2.609821499994723,,,,SN,001,2024-11-22_17h12.15.406,Disgust Thang,2024.1.5,None,2024-11-22 17h12.35.045736 +0530,
,,,,,,,32R,Sexual harassment of women in the workplace is a serious problem and should be prosecuted under law,,,,,,,,,,,,,,,,,0,31,31,31,545.5955142000166,,,,,,,,,,,,,,,,,,,,,,,,,,,,,,,,,,,,,,,,,,,,,,,,,,,,,,,545.5741030000208,545.5955142000166,545.5955142000166,548.2734033000015,1.0,2.675954800011823,,,,SN,001,2024-11-22_17h12.15.406,Disgust Thang,2024.1.5,None,2024-11-22 17h12.35.045736 +0530,
,,,,,,,33R,"The primary function of prisons should be to rehabilitate criminals, not to punish them. ",,,,,,,,,,,,,,,,,0,32,32,32,548.2952104000142,,,,,,,,,,,,,,,,,,,,,,,,,,,,,,,,,,,,,,,,,,,,,,,,,,,,,,,548.2736441000015,548.2952104000142,548.2952104000142,552.022784700006,3.0,3.72604290000163,,,,SN,001,2024-11-22_17h12.15.406,Disgust Thang,2024.1.5,None,2024-11-22 17h12.35.045736 +0530,
,,,,,,,34R,The states should abolish criminal penalties for victimless crimes such as gambling and prostitution. ,,,,,,,,,,,,,,,,,0,33,33,33,552.0434585000039,,,,,,,,,,,,,,,,,,,,,,,,,,,,,,,,,,,,,,,,,,,,,,,,,,,,,,,552.0230229000153,552.0434585000039,552.0434585000039,557.3390363999933,2.0,5.292832999984967,,,,SN,001,2024-11-22_17h12.15.406,Disgust Thang,2024.1.5,None,2024-11-22 17h12.35.045736 +0530,
,,,,,,,35,The CBI should be able to wiretap the phones and read the mail of suspected individuals.,,,,,,,,,,,,,,,,,0,34,34,34,557.3617792000005,,,,,,,,,,,,,,,,,,,,,,,,,,,,,,,,,,,,,,,,,,,,,,,,,,,,,,,557.3392890999967,557.3617792000005,557.3617792000005,565.487896000006,3.0,8.124786700005643,,,,SN,001,2024-11-22_17h12.15.406,Disgust Thang,2024.1.5,None,2024-11-22 17h12.35.045736 +0530,
,,,,,,,36R,"The central government must take strong steps to reverse global warming, even if it means losing some jobs. ",,,,,,,,,,,,,,,,,0,35,35,35,565.509973600012,,,,,,,,,,,,,,,,,,,,,,,,,,,,,,,,,,,,,,,,,,,,,,,,,,,,,,,565.4881440000026,565.509973600012,565.509973600012,569.4873161000141,2.0,3.9752879999869037,,,,SN,001,2024-11-22_17h12.15.406,Disgust Thang,2024.1.5,None,2024-11-22 17h12.35.045736 +0530,
,,,,,,,37,Most youth who fall under the reservation scheme today are lazy and do not want to work.,,,,,,,,,,,,,,,,,0,36,36,36,569.5091252000129,,,,,,,,,,,,,,,,,,,,,,,,,,,,,,,,,,,,,,,,,,,,,,,,,,,,,,,569.4875679000106,569.5091252000129,569.5091252000129,574.4702541000152,4.0,4.959418300015386,,,,SN,001,2024-11-22_17h12.15.406,Disgust Thang,2024.1.5,None,2024-11-22 17h12.35.045736 +0530,
,,,,,,,38,Profanity and sexually oriented material on television should be stopped or penalized by the government. ,,,,,,,,,,,,,,,,,0,37,37,37,574.493183100014,,,,,,,,,,,,,,,,,,,,,,,,,,,,,,,,,,,,,,,,,,,,,,,,,,,,,,,574.470513600012,574.493183100014,574.493183100014,580.4857125999988,2.0,5.991371599986451,,,,SN,001,2024-11-22_17h12.15.406,Disgust Thang,2024.1.5,None,2024-11-22 17h12.35.045736 +0530,
,,,,,,,39,"The government must stop the flow of immigrants, both legal and illegal, from Bangladesh.",,,,,,,,,,,,,,,,,0,38,38,38,580.5077481000044,,,,,,,,,,,,,,,,,,,,,,,,,,,,,,,,,,,,,,,,,,,,,,,,,,,,,,,580.4859578000032,580.5077481000044,580.5077481000044,583.7047845000052,2.0,3.192920800007414,,,,SN,001,2024-11-22_17h12.15.406,Disgust Thang,2024.1.5,None,2024-11-22 17h12.35.045736 +0530,
,,,,,,,40R,There should be sensitization classes for individuals in the LGBTQ+ community in school.,,,,,,,,,,,,,,,,,0,39,39,39,583.7280087000108,,,,,,,,,,,,,,,,,,,,,,,,,,,,,,,,,,,,,,,,,,,,,,,,,,,,,,,583.7050310000195,583.7280087000108,583.7280087000108,587.4850607000117,2.0,3.75532490000478,,,,SN,001,2024-11-22_17h12.15.406,Disgust Thang,2024.1.5,None,2024-11-22 17h12.35.045736 +0530,
,,,,,,,,,,,,,,,,,,,,,,,,,,,,,,,,,,,,,,,,,,,,,,,,,,,,,,,,,,,,,,,,,,,,,,,,,,,,,,,,,,,,,,,,,,587.485233000014,587.4993994999968,597.4982776000106,SN,001,2024-11-22_17h12.15.406,Disgust Thang,2024.1.5,None,2024-11-22 17h12.35.045736 +0530,
