dsr1_no,dsr1,dsr2_no,dsr_e,math_q,correct_resp,image_disgust,no,pol_ques,trials_4.thisRepN,trials_4.thisTrialN,trials_4.thisN,trials_4.thisIndex,trials_5.thisRepN,trials_5.thisTrialN,trials_5.thisN,trials_5.thisIndex,trials_3.thisRepN,trials_3.thisTrialN,trials_3.thisN,trials_3.thisIndex,trials.thisRepN,trials.thisTrialN,trials.thisN,trials.thisIndex,trials_2.thisRepN,trials_2.thisTrialN,trials_2.thisN,trials_2.thisIndex,thisRow.t,notes,consent_form.started,text_10.started,button_2.started,consent_form.stopped,button_2.numClicks,button_2.timesOn,button_2.timesOff,Introduction.started,text_3.started,button.started,Introduction.stopped,button.numClicks,button.timesOn,button.timesOff,dsr_a.started,text_6.started,text_7.started,slider_3.started,dsr_a.stopped,slider_3.response,slider_3.rt,dsr_b.started,text_8.started,text_9.started,slider_4.started,dsr_b.stopped,slider_4.response,slider_4.rt,distractor.started,text.started,textbox.started,buton.started,distractor.stopped,textbox.text,buton.numClicks,buton.timesOn,buton.timesOff,encoding.started,polygon.started,image.started,polygon.stopped,slider.started,encoding.stopped,slider.response,slider.rt,image.stopped,instruction.started,text_4.started,Button.started,instruction.stopped,Button.numClicks,Button.timesOn,Button.timesOff,testing.started,text_2.started,slider_2.started,testing.stopped,slider_2.response,slider_2.rt,exit_message.started,text_5.started,exit_message.stopped,participant,session,date,expName,psychopyVersion,frameRate,expStart,
,,,,,,,,,,,,,,,,,,,,,,,,,,,,,,,0.004223800002364442,0.011412599997129291,0.011412599997129291,17.416258999990532,1,[17.411142300028587],[17.411149100022158],,,,,,,,,,,,,,,,,,,,,,,,,,,,,,,,,,,,,,,,,,,,,,,,,,,,,,,,ST,001,2024-11-22_16h56.13.304,Disgust Thang,2024.1.5,None,2024-11-22 16h56.48.007649 +0530,
,,,,,,,,,,,,,,,,,,,,,,,,,,,,,,,,,,,,,,17.416327999992063,17.431629099999554,17.431629099999554,30.49769849999575,1,[13.080308200005675],[13.080314799997723],,,,,,,,,,,,,,,,,,,,,,,,,,,,,,,,,,,,,,,,,,,,,,,,,ST,001,2024-11-22_16h56.13.304,Disgust Thang,2024.1.5,None,2024-11-22 16h56.48.007649 +0530,
1r,"I might be willing to try eating monkey meat, under some circumstances",,,,,,,,0,0,0,0,,,,,,,,,,,,,,,,,30.552376099978574,,,,,,,,,,,,,,,,30.503258199983975,30.552376099978574,30.552376099978574,30.552376099978574,30.62578579998808,2.0,0.10166960000060499,,,,,,,,,,,,,,,,,,,,,,,,,,,,,,,,,,,,,,,,,,ST,001,2024-11-22_16h56.13.304,Disgust Thang,2024.1.5,None,2024-11-22 16h56.48.007649 +0530,
2,"It would bother me to be in a science class, and to see a human hand preserved in a jar",,,,,,,,0,1,1,1,,,,,,,,,,,,,,,,,30.65005399999791,,,,,,,,,,,,,,,,30.626103299990064,30.65005399999791,30.65005399999791,30.65005399999791,39.26422069998807,0.0,8.613847900007386,,,,,,,,,,,,,,,,,,,,,,,,,,,,,,,,,,,,,,,,,,ST,001,2024-11-22_16h56.13.304,Disgust Thang,2024.1.5,None,2024-11-22 16h56.48.007649 +0530,
3,It bothers me to hear someone clear a throat full of mucous,,,,,,,,0,2,2,2,,,,,,,,,,,,,,,,,39.28486799998791,,,,,,,,,,,,,,,,39.26443599999766,39.28486799998791,39.28486799998791,39.28486799998791,50.89624159998493,3.0,11.610084000014467,,,,,,,,,,,,,,,,,,,,,,,,,,,,,,,,,,,,,,,,,,ST,001,2024-11-22_16h56.13.304,Disgust Thang,2024.1.5,None,2024-11-22 16h56.48.007649 +0530,
4,I never let any part of my body touch the toilet seat in public restrooms. ,,,,,,,,0,3,3,3,,,,,,,,,,,,,,,,,50.92074239999056,,,,,,,,,,,,,,,,50.89648809999926,50.92074239999056,50.92074239999056,50.92074239999056,57.99530609999783,4.0,7.075867700012168,,,,,,,,,,,,,,,,,,,,,,,,,,,,,,,,,,,,,,,,,,ST,001,2024-11-22_16h56.13.304,Disgust Thang,2024.1.5,None,2024-11-22 16h56.48.007649 +0530,
5,I would go out of my way to avoid walking through a graveyard. ,,,,,,,,0,4,4,4,,,,,,,,,,,,,,,,,58.0178617000056,,,,,,,,,,,,,,,,57.995545699988725,58.0178617000056,58.0178617000056,58.0178617000056,62.47811669998919,0.0,4.459319899993716,,,,,,,,,,,,,,,,,,,,,,,,,,,,,,,,,,,,,,,,,,ST,001,2024-11-22_16h56.13.304,Disgust Thang,2024.1.5,None,2024-11-22 16h56.48.007649 +0530,
6r,Seeing a cockroach in someone else's house doesn't bother me. ,,,,,,,,0,5,5,5,,,,,,,,,,,,,,,,,62.50055299999076,,,,,,,,,,,,,,,,62.478353099984815,62.50055299999076,62.50055299999076,62.50055299999076,66.62754049999057,4.0,4.125479599984828,,,,,,,,,,,,,,,,,,,,,,,,,,,,,,,,,,,,,,,,,,ST,001,2024-11-22_16h56.13.304,Disgust Thang,2024.1.5,None,2024-11-22 16h56.48.007649 +0530,
7,It would bother me tremendously to touch a dead body. ,,,,,,,,0,6,6,6,,,,,,,,,,,,,,,,,66.64856030000374,,,,,,,,,,,,,,,,66.62777799999458,66.64856030000374,66.64856030000374,66.64856030000374,74.64316539998981,0.0,7.993397099984577,,,,,,,,,,,,,,,,,,,,,,,,,,,,,,,,,,,,,,,,,,ST,001,2024-11-22_16h56.13.304,Disgust Thang,2024.1.5,None,2024-11-22 16h56.48.007649 +0530,
8,"If I see someone vomit, it makes me sick to my stomach. ",,,,,,,,0,7,7,7,,,,,,,,,,,,,,,,,74.66427779998048,,,,,,,,,,,,,,,,74.64340129998163,74.66427779998048,74.66427779998048,74.66427779998048,79.21006829998805,0.0,4.54388569999719,,,,,,,,,,,,,,,,,,,,,,,,,,,,,,,,,,,,,,,,,,ST,001,2024-11-22_16h56.13.304,Disgust Thang,2024.1.5,None,2024-11-22 16h56.48.007649 +0530,
9,I probably would not go to my favorite restaurant if I found out that the cook had a cold. ,,,,,,,,0,8,8,8,,,,,,,,,,,,,,,,,79.23557989997789,,,,,,,,,,,,,,,,79.21038479998242,79.23557989997789,79.23557989997789,79.23557989997789,91.67443399998592,4.0,12.437714100000449,,,,,,,,,,,,,,,,,,,,,,,,,,,,,,,,,,,,,,,,,,ST,001,2024-11-22_16h56.13.304,Disgust Thang,2024.1.5,None,2024-11-22 16h56.48.007649 +0530,
10r,"It would not upset me at all to watch a person with a glass eye take the eye 
out of the socket.  ",,,,,,,,0,9,9,9,,,,,,,,,,,,,,,,,91.69725659998949,,,,,,,,,,,,,,,,91.67466970000532,91.69725659998949,91.69725659998949,91.69725659998949,115.75468990000081,4.0,24.056129300006432,,,,,,,,,,,,,,,,,,,,,,,,,,,,,,,,,,,,,,,,,,ST,001,2024-11-22_16h56.13.304,Disgust Thang,2024.1.5,None,2024-11-22 16h56.48.007649 +0530,
11,It would bother me to see a rat run across my path in a park. ,,,,,,,,0,10,10,10,,,,,,,,,,,,,,,,,115.77611119998619,,,,,,,,,,,,,,,,115.75493140000617,115.77611119998619,115.77611119998619,115.77611119998619,128.7196527000051,0.0,12.942319699999643,,,,,,,,,,,,,,,,,,,,,,,,,,,,,,,,,,,,,,,,,,ST,001,2024-11-22_16h56.13.304,Disgust Thang,2024.1.5,None,2024-11-22 16h56.48.007649 +0530,
12d,I would rather eat a piece of fruit than a piece of paper ,,,,,,,,0,11,11,11,,,,,,,,,,,,,,,,,128.740655600006,,,,,,,,,,,,,,,,128.7198927999998,128.740655600006,128.740655600006,128.740655600006,132.08597099999315,4.0,3.3438252999912947,,,,,,,,,,,,,,,,,,,,,,,,,,,,,,,,,,,,,,,,,,ST,001,2024-11-22_16h56.13.304,Disgust Thang,2024.1.5,None,2024-11-22 16h56.48.007649 +0530,
13,"Even if I was hungry, I would not drink a bowl of my favorite soup if it had been
stirred by a used but thoroughly washed flyswatter. ",,,,,,,,0,12,12,12,,,,,,,,,,,,,,,,,132.10991229998763,,,,,,,,,,,,,,,,132.08621049998328,132.10991229998763,132.10991229998763,132.10991229998763,148.06713239999954,4.0,15.955729100009194,,,,,,,,,,,,,,,,,,,,,,,,,,,,,,,,,,,,,,,,,,ST,001,2024-11-22_16h56.13.304,Disgust Thang,2024.1.5,None,2024-11-22 16h56.48.007649 +0530,
14,"It would bother me to sleep in a nice hotel room if I knew that a man had died of a
heart attack in that room the night before. ",,,,,,,,0,13,13,13,,,,,,,,,,,,,,,,,148.08979080000427,,,,,,,,,,,,,,,,148.0673950999917,148.08979080000427,148.08979080000427,148.08979080000427,154.14955299999565,0.0,6.059572899976047,,,,,,,,,,,,,,,,,,,,,,,,,,,,,,,,,,,,,,,,,,ST,001,2024-11-22_16h56.13.304,Disgust Thang,2024.1.5,None,2024-11-22 16h56.48.007649 +0530,
,,15,You see maggots on a piece of meat in an outdoor garbage pail. ,,,,,,,,,,0,0,0,0,,,,,,,,,,,,,154.1776590999798,,,,,,,,,,,,,,,,,,,,,,,154.15433059999486,154.1776590999798,154.1776590999798,154.1776590999798,161.46700939998846,0.0,7.289263700018637,,,,,,,,,,,,,,,,,,,,,,,,,,,,,,,,,,,ST,001,2024-11-22_16h56.13.304,Disgust Thang,2024.1.5,None,2024-11-22 16h56.48.007649 +0530,
,,16d,You see a person eating an apple with a knife and fork,,,,,,,,,,0,1,1,1,,,,,,,,,,,,,161.48891479999293,,,,,,,,,,,,,,,,,,,,,,,161.46732399999746,161.48891479999293,161.48891479999293,161.48891479999293,168.88637999998173,0.0,7.396894500008784,,,,,,,,,,,,,,,,,,,,,,,,,,,,,,,,,,,ST,001,2024-11-22_16h56.13.304,Disgust Thang,2024.1.5,None,2024-11-22 16h56.48.007649 +0530,
,,17,"While you are walking through a tunnel under a railroad track, you smell urine. ",,,,,,,,,,0,2,2,2,,,,,,,,,,,,,169.00904720000108,,,,,,,,,,,,,,,,,,,,,,,168.8866463000013,169.00904720000108,169.00904720000108,169.00904720000108,174.2977711999847,0.0,5.28733029999421,,,,,,,,,,,,,,,,,,,,,,,,,,,,,,,,,,,ST,001,2024-11-22_16h56.13.304,Disgust Thang,2024.1.5,None,2024-11-22 16h56.48.007649 +0530,
,,18,"You take a sip of soda, and then realize that you drank from the glass that an
 		acquaintance of yours had been drinking from",,,,,,,,,,0,3,3,3,,,,,,,,,,,,,174.32270049999352,,,,,,,,,,,,,,,,,,,,,,,174.29801850000513,174.32270049999352,174.32270049999352,174.32270049999352,185.06229030000395,0.0,10.73936620002496,,,,,,,,,,,,,,,,,,,,,,,,,,,,,,,,,,,ST,001,2024-11-22_16h56.13.304,Disgust Thang,2024.1.5,None,2024-11-22 16h56.48.007649 +0530,
,,19,"Your friend's pet cat dies, and you have to pick up the dead body with your bare hands.  ",,,,,,,,,,0,4,4,4,,,,,,,,,,,,,185.08548879998852,,,,,,,,,,,,,,,,,,,,,,,185.06258779999916,185.08548879998852,185.08548879998852,185.08548879998852,191.62796329997946,0.0,6.541967299999669,,,,,,,,,,,,,,,,,,,,,,,,,,,,,,,,,,,ST,001,2024-11-22_16h56.13.304,Disgust Thang,2024.1.5,None,2024-11-22 16h56.48.007649 +0530,
,,20,"You see someone put ketchup on vanilla ice cream, and eat it. ",,,,,,,,,,0,5,5,5,,,,,,,,,,,,,191.65394489999744,,,,,,,,,,,,,,,,,,,,,,,191.62825680000242,191.65394489999744,191.65394489999744,191.65394489999744,194.42808489999152,4.0,2.776050199987367,,,,,,,,,,,,,,,,,,,,,,,,,,,,,,,,,,,ST,001,2024-11-22_16h56.13.304,Disgust Thang,2024.1.5,None,2024-11-22 16h56.48.007649 +0530,
,,21,You see a man with his intestines exposed after an accident. ,,,,,,,,,,0,6,6,6,,,,,,,,,,,,,194.4498479999893,,,,,,,,,,,,,,,,,,,,,,,194.42833480000263,194.4498479999893,194.4498479999893,194.4498479999893,198.64400649999152,0.0,4.193784300005063,,,,,,,,,,,,,,,,,,,,,,,,,,,,,,,,,,,ST,001,2024-11-22_16h56.13.304,Disgust Thang,2024.1.5,None,2024-11-22 16h56.48.007649 +0530,
,,22,You discover that a friend of yours changes underwear only once a week. ,,,,,,,,,,0,7,7,7,,,,,,,,,,,,,198.66669980000006,,,,,,,,,,,,,,,,,,,,,,,198.64425690000644,198.66669980000006,198.66669980000006,198.66669980000006,204.54312879999634,4.0,5.875985900027445,,,,,,,,,,,,,,,,,,,,,,,,,,,,,,,,,,,ST,001,2024-11-22_16h56.13.304,Disgust Thang,2024.1.5,None,2024-11-22 16h56.48.007649 +0530,
,,23,A friend offers you a piece of chocolate shaped like dog doo. ,,,,,,,,,,0,8,8,8,,,,,,,,,,,,,204.56545989998267,,,,,,,,,,,,,,,,,,,,,,,204.54337020000094,204.56545989998267,204.56545989998267,204.56545989998267,209.35930379998172,0.0,4.792513399996096,,,,,,,,,,,,,,,,,,,,,,,,,,,,,,,,,,,ST,001,2024-11-22_16h56.13.304,Disgust Thang,2024.1.5,None,2024-11-22 16h56.48.007649 +0530,
,,24,You accidentally touch the ashes of a person who has been cremated. ,,,,,,,,,,0,9,9,9,,,,,,,,,,,,,209.3808181999775,,,,,,,,,,,,,,,,,,,,,,,209.35954929998843,209.3808181999775,209.3808181999775,209.3808181999775,217.20835739999893,0.0,7.82630089999293,,,,,,,,,,,,,,,,,,,,,,,,,,,,,,,,,,,ST,001,2024-11-22_16h56.13.304,Disgust Thang,2024.1.5,None,2024-11-22 16h56.48.007649 +0530,
,,25,You are about to drink a glass of milk when you smell that it is spoiled. ,,,,,,,,,,0,10,10,10,,,,,,,,,,,,,217.23265019999235,,,,,,,,,,,,,,,,,,,,,,,217.20860399998492,217.23265019999235,217.23265019999235,217.23265019999235,220.02462389998254,4.0,2.793322299985448,,,,,,,,,,,,,,,,,,,,,,,,,,,,,,,,,,,ST,001,2024-11-22_16h56.13.304,Disgust Thang,2024.1.5,None,2024-11-22 16h56.48.007649 +0530,
,,26,"As part of a sex education class, you are required to inflate a new unlubricated
		condom, using your mouth. ",,,,,,,,,,0,11,11,11,,,,,,,,,,,,,220.04770539997844,,,,,,,,,,,,,,,,,,,,,,,220.02486869998393,220.04770539997844,220.04770539997844,220.04770539997844,225.5404950999946,0.0,5.492928299994674,,,,,,,,,,,,,,,,,,,,,,,,,,,,,,,,,,,ST,001,2024-11-22_16h56.13.304,Disgust Thang,2024.1.5,None,2024-11-22 16h56.48.007649 +0530,
,,27,"You are walking barefoot on concrete, and you step on an earthworm. ",,,,,,,,,,0,12,12,12,,,,,,,,,,,,,225.56224919998203,,,,,,,,,,,,,,,,,,,,,,,225.54073680000147,225.56224919998203,225.56224919998203,225.56224919998203,231.40646389999893,1.0,5.843049899995094,,,,,,,,,,,,,,,,,,,,,,,,,,,,,,,,,,,ST,001,2024-11-22_16h56.13.304,Disgust Thang,2024.1.5,None,2024-11-22 16h56.48.007649 +0530,
,,,,15-7,8,,,,,,,,,,,,0,0,0,0,,,,,,,,,231.4292659999919,,,,,,,,,,,,,,,,,,,,,,,,,,,,,,231.41088839998702,231.4292659999919,231.4292659999919,231.4292659999919,238.02099910000106,8,1,[6.6058847999956924],[6.605891499988502],,,,,,,,,,,,,,,,,,,,,,,,,,ST,001,2024-11-22_16h56.13.304,Disgust Thang,2024.1.5,None,2024-11-22 16h56.48.007649 +0530,
,,,,5*7,35,,,,,,,,,,,,0,1,1,1,,,,,,,,,238.03636979998555,,,,,,,,,,,,,,,,,,,,,,,,,,,,,,238.02152399998158,238.03636979998555,238.03636979998555,238.03636979998555,245.36990469999728,35,1,[7.345109299989417],[7.345115100004477],,,,,,,,,,,,,,,,,,,,,,,,,,ST,001,2024-11-22_16h56.13.304,Disgust Thang,2024.1.5,None,2024-11-22 16h56.48.007649 +0530,
,,,,42/7,6,,,,,,,,,,,,0,2,2,2,,,,,,,,,245.38537679999718,,,,,,,,,,,,,,,,,,,,,,,,,,,,,,245.37024789999123,245.38537679999718,245.38537679999718,245.38537679999718,250.05276530000265,6,1,[4.677906199998688],[4.677912499988452],,,,,,,,,,,,,,,,,,,,,,,,,,ST,001,2024-11-22_16h56.13.304,Disgust Thang,2024.1.5,None,2024-11-22 16h56.48.007649 +0530,
,,,,51-17,34,,,,,,,,,,,,0,3,3,3,,,,,,,,,250.068248399999,,,,,,,,,,,,,,,,,,,,,,,,,,,,,,250.05312369999592,250.068248399999,250.068248399999,250.068248399999,313.244229599979,34,1,[63.18856539999251],[63.188570700003766],,,,,,,,,,,,,,,,,,,,,,,,,,ST,001,2024-11-22_16h56.13.304,Disgust Thang,2024.1.5,None,2024-11-22 16h56.48.007649 +0530,
,,,,19*8,152,,,,,,,,,,,,0,4,4,4,,,,,,,,,313.2601303999836,,,,,,,,,,,,,,,,,,,,,,,,,,,,,,313.24457899999106,313.2601303999836,313.2601303999836,313.2601303999836,321.54310189999524,152,1,[8.29454960001749],[8.294555100001162],,,,,,,,,,,,,,,,,,,,,,,,,,ST,001,2024-11-22_16h56.13.304,Disgust Thang,2024.1.5,None,2024-11-22 16h56.48.007649 +0530,
,,,,6* (25+3),168,,,,,,,,,,,,0,5,5,5,,,,,,,,,321.5590762999782,,,,,,,,,,,,,,,,,,,,,,,,,,,,,,321.5434639999876,321.5590762999782,321.5590762999782,321.5590762999782,359.371899699996,168,1,[37.82333980000112],[37.8233457999886],,,,,,,,,,,,,,,,,,,,,,,,,,ST,001,2024-11-22_16h56.13.304,Disgust Thang,2024.1.5,None,2024-11-22 16h56.48.007649 +0530,
,,,,,,images/1253_hygiene.png,,,,,,,,,,,,,,,0,0,0,8,,,,,359.40464110000175,,,,,,,,,,,,,,,,,,,,,,,,,,,,,,,,,,,,,,,359.3763170999882,359.40464110000175,360.39346439999645,360.40481569999247,367.3864069999836,369.421938399988,1.9296296296296296,10.00797400000738,,,,,,,,,,,,,,,,,,ST,001,2024-11-22_16h56.13.304,Disgust Thang,2024.1.5,None,2024-11-22 16h56.48.007649 +0530,
,,,,,,images/1033_food.png,,,,,,,,,,,,,,,0,1,1,0,,,,,369.4451735999901,,,,,,,,,,,,,,,,,,,,,,,,,,,,,,,,,,,,,,,369.4222340999986,369.4451735999901,370.43745409999974,370.45355819998076,377.43520499998704,379.7375583999965,1.451851851851852,10.282342100021197,,,,,,,,,,,,,,,,,,ST,001,2024-11-22_16h56.13.304,Disgust Thang,2024.1.5,None,2024-11-22 16h56.48.007649 +0530,
,,,,,,images/1201_death.png,,,,,,,,,,,,,,,0,2,2,6,,,,,379.76765739999246,,,,,,,,,,,,,,,,,,,,,,,,,,,,,,,,,,,,,,,379.73778309999034,379.76765739999246,380.75282229998265,380.76881680000224,387.7505143999879,396.58529160000035,5,16.807467200007522,390.7666992000013,,,,,,,,,,,,,,,,,ST,001,2024-11-22_16h56.13.304,Disgust Thang,2024.1.5,None,2024-11-22 16h56.48.007649 +0530,
,,,,,,images/1218_death.png,,,,,,,,,,,,,,,0,3,3,7,,,,,396.6125342999876,,,,,,,,,,,,,,,,,,,,,,,,,,,,,,,,,,,,,,,396.5855219999794,396.6125342999876,397.60054039998795,397.6165075000026,404.59847369999625,418.78249799998594,3.0148148148148146,22.159571299998788,407.61460839997744,,,,,,,,,,,,,,,,,ST,001,2024-11-22_16h56.13.304,Disgust Thang,2024.1.5,None,2024-11-22 16h56.48.007649 +0530,
,,,,,,images/1034_food.png,,,,,,,,,,,,,,,0,4,4,1,,,,,418.8071532000031,,,,,,,,,,,,,,,,,,,,,,,,,,,,,,,,,,,,,,,418.78272379998816,418.8071532000031,419.7976583999989,419.8137086999777,426.79555489998893,429.8641831999994,2.640740740740741,11.047233399993274,429.81170869999914,,,,,,,,,,,,,,,,,ST,001,2024-11-22_16h56.13.304,Disgust Thang,2024.1.5,None,2024-11-22 16h56.48.007649 +0530,
,,,,,,images/1171_injuries_infections.png,,,,,,,,,,,,,,,0,5,5,4,,,,,429.88871959998505,,,,,,,,,,,,,,,,,,,,,,,,,,,,,,,,,,,,,,,429.86439179998706,429.88871959998505,430.8815592000028,430.8957766999956,437.87738769999123,446.14565190000576,3.148148148148148,16.246782000001986,440.8936950999778,,,,,,,,,,,,,,,,,ST,001,2024-11-22_16h56.13.304,Disgust Thang,2024.1.5,None,2024-11-22 16h56.48.007649 +0530,
,,,,,,images/1110_body products.png,,,,,,,,,,,,,,,0,6,6,2,,,,,446.1730674999999,,,,,,,,,,,,,,,,,,,,,,,,,,,,,,,,,,,,,,,446.1458789999888,446.1730674999999,447.1608624999935,447.17699949999223,454.15862989999005,455.7444975999824,2.992592592592593,9.561432100017555,,,,,,,,,,,,,,,,,,ST,001,2024-11-22_16h56.13.304,Disgust Thang,2024.1.5,None,2024-11-22 16h56.48.007649 +0530,
,,,,,,images/1118_body products.png,,,,,,,,,,,,,,,0,7,7,3,,,,,455.7722289999947,,,,,,,,,,,,,,,,,,,,,,,,,,,,,,,,,,,,,,,455.74470369998016,455.7722289999947,456.7596447999822,456.77575249999063,463.7574755999958,466.9093940999883,2.5925925925925926,11.127425699989544,466.7737016000028,,,,,,,,,,,,,,,,,ST,001,2024-11-22_16h56.13.304,Disgust Thang,2024.1.5,None,2024-11-22 16h56.48.007649 +0530,
,,,,,,images/1182_injuries_infections.png,,,,,,,,,,,,,,,0,8,8,5,,,,,466.93273440000485,,,,,,,,,,,,,,,,,,,,,,,,,,,,,,,,,,,,,,,466.90960369998356,466.93273440000485,467.92492530000163,467.9410352999985,474.9227232999983,477.8417450999841,2.5592592592592593,10.899111400009133,,,,,,,,,,,,,,,,,,ST,001,2024-11-22_16h56.13.304,Disgust Thang,2024.1.5,None,2024-11-22 16h56.48.007649 +0530,
,,,,,,,,,,,,,,,,,,,,,,,,,,,,,,,,,,,,,,,,,,,,,,,,,,,,,,,,,,,,,,,,,,,,,,,,,,,,,477.8418982999865,477.8559864999843,477.8559864999843,481.289653099986,1,[3.4468764000048395],[3.446881999989273],,,,,,,,,,ST,001,2024-11-22_16h56.13.304,Disgust Thang,2024.1.5,None,2024-11-22 16h56.48.007649 +0530,
,,,,,,,1R,The government should pass a Constitutional amendment that would make it illegal to discriminate against anyone in any situation based on sexual orientation.,,,,,,,,,,,,,,,,,0,0,0,0,481.3251861000026,,,,,,,,,,,,,,,,,,,,,,,,,,,,,,,,,,,,,,,,,,,,,,,,,,,,,,,481.2963086999953,481.3251861000026,481.3251861000026,481.3851233999885,3.0,0.06516800000099465,,,,ST,001,2024-11-22_16h56.13.304,Disgust Thang,2024.1.5,None,2024-11-22 16h56.48.007649 +0530,
,,,,,,,2R,"The national government should establish a centrally funded medical program so that all persons, regardless of means, have access to medical care.",,,,,,,,,,,,,,,,,0,1,1,1,481.4071430999902,,,,,,,,,,,,,,,,,,,,,,,,,,,,,,,,,,,,,,,,,,,,,,,,,,,,,,,481.3854573999997,481.4071430999902,481.4071430999902,495.17271929999697,1.0,13.7634442000126,,,,ST,001,2024-11-22_16h56.13.304,Disgust Thang,2024.1.5,None,2024-11-22 16h56.48.007649 +0530,
,,,,,,,3,It should be legal and constitutional to say a prayer at the beginning of assemblies in public schools.,,,,,,,,,,,,,,,,,0,2,2,2,495.1948102999886,,,,,,,,,,,,,,,,,,,,,,,,,,,,,,,,,,,,,,,,,,,,,,,,,,,,,,,495.1729678999982,495.1948102999886,495.1948102999886,501.45508079999126,3.0,6.259869100002106,,,,ST,001,2024-11-22_16h56.13.304,Disgust Thang,2024.1.5,None,2024-11-22 16h56.48.007649 +0530,
,,,,,,,4R,Persons should be allowed to join and serve in the military regardless of their sexual preference as long as their behavior meets strict military standards.,,,,,,,,,,,,,,,,,0,3,3,3,501.4777766999905,,,,,,,,,,,,,,,,,,,,,,,,,,,,,,,,,,,,,,,,,,,,,,,,,,,,,,,501.4553217999928,501.4777766999905,501.4777766999905,508.7541910999862,4.0,7.274390200007474,,,,ST,001,2024-11-22_16h56.13.304,Disgust Thang,2024.1.5,None,2024-11-22 16h56.48.007649 +0530,
,,,,,,,5R,A person should be able to use and grow small quantities of marijuana in the privacy of his or her own home with no legal consequences.,,,,,,,,,,,,,,,,,0,4,4,4,508.7764145999972,,,,,,,,,,,,,,,,,,,,,,,,,,,,,,,,,,,,,,,,,,,,,,,,,,,,,,,508.75443259999156,508.7764145999972,508.7764145999972,513.7869733999833,1.0,5.0082807000144385,,,,ST,001,2024-11-22_16h56.13.304,Disgust Thang,2024.1.5,None,2024-11-22 16h56.48.007649 +0530,
,,,,,,,6,"Persons receiving the death penalty should be limited in their number of appeals, and the death sentence should be carried out in a shorter time period than it is now.",,,,,,,,,,,,,,,,,0,5,5,5,513.8099770999979,,,,,,,,,,,,,,,,,,,,,,,,,,,,,,,,,,,,,,,,,,,,,,,,,,,,,,,513.7872136999795,513.8099770999979,513.8099770999979,523.3356015000027,1.0,9.523711599991657,,,,ST,001,2024-11-22_16h56.13.304,Disgust Thang,2024.1.5,None,2024-11-22 16h56.48.007649 +0530,
,,,,,,,7,The government should reverse its decision on abortion and make it more challenging to have an abortion except in special cases such as rape and incest. ,,,,,,,,,,,,,,,,,0,6,6,6,523.3589225999895,,,,,,,,,,,,,,,,,,,,,,,,,,,,,,,,,,,,,,,,,,,,,,,,,,,,,,,523.335845499998,523.3589225999895,523.3589225999895,576.7622404999856,5.0,53.401397699984955,,,,ST,001,2024-11-22_16h56.13.304,Disgust Thang,2024.1.5,None,2024-11-22 16h56.48.007649 +0530,
,,,,,,,8,India should require one year of military service for all able-bodied people.,,,,,,,,,,,,,,,,,0,7,7,7,576.7837677999923,,,,,,,,,,,,,,,,,,,,,,,,,,,,,,,,,,,,,,,,,,,,,,,,,,,,,,,576.7625067000045,576.7837677999923,576.7837677999923,587.8108346999798,3.0,11.025103100022534,,,,ST,001,2024-11-22_16h56.13.304,Disgust Thang,2024.1.5,None,2024-11-22 16h56.48.007649 +0530,
,,,,,,,9,"Parents should be able to send their children to any school they choose, and tax money should be used to support the schools that parents choose.",,,,,,,,,,,,,,,,,0,8,8,8,587.8331049999979,,,,,,,,,,,,,,,,,,,,,,,,,,,,,,,,,,,,,,,,,,,,,,,,,,,,,,,587.8110842999886,587.8331049999979,587.8331049999979,603.5921012999897,5.0,15.75676960000419,,,,ST,001,2024-11-22_16h56.13.304,Disgust Thang,2024.1.5,None,2024-11-22 16h56.48.007649 +0530,
,,,,,,,10,Police should be able to confiscate any materials that are deemed to be obscene or pornographic. ,,,,,,,,,,,,,,,,,0,9,9,9,603.6137773999944,,,,,,,,,,,,,,,,,,,,,,,,,,,,,,,,,,,,,,,,,,,,,,,,,,,,,,,603.5923439000035,603.6137773999944,603.6137773999944,608.6081495999824,5.0,4.992747300013434,,,,ST,001,2024-11-22_16h56.13.304,Disgust Thang,2024.1.5,None,2024-11-22 16h56.48.007649 +0530,
,,,,,,,11,The central government should be required to have a balanced budget that does not spend more than the money that comes in from taxes,,,,,,,,,,,,,,,,,0,10,10,10,608.6303995999915,,,,,,,,,,,,,,,,,,,,,,,,,,,,,,,,,,,,,,,,,,,,,,,,,,,,,,,608.6083918999939,608.6303995999915,608.6303995999915,621.3068632999784,3.0,12.67391419998603,,,,ST,001,2024-11-22_16h56.13.304,Disgust Thang,2024.1.5,None,2024-11-22 16h56.48.007649 +0530,
,,,,,,,12R, Laws that limit the sale of fireworks and other explosive materials that are not intended for legitimate cultural or religious purposes should be passed.,,,,,,,,,,,,,,,,,0,11,11,11,621.3309226999991,,,,,,,,,,,,,,,,,,,,,,,,,,,,,,,,,,,,,,,,,,,,,,,,,,,,,,,621.3071057999914,621.3309226999991,621.3309226999991,628.7887833999994,5.0,7.4556711000041105,,,,ST,001,2024-11-22_16h56.13.304,Disgust Thang,2024.1.5,None,2024-11-22 16h56.48.007649 +0530,
,,,,,,,13R,Sex education should be in taught all public schools and all students should be required to take the class unless exempted by parents. ,,,,,,,,,,,,,,,,,0,12,12,12,628.8113823999884,,,,,,,,,,,,,,,,,,,,,,,,,,,,,,,,,,,,,,,,,,,,,,,,,,,,,,,628.7890251999779,628.8113823999884,628.8113823999884,637.5544035999919,1.0,8.741087900009006,,,,ST,001,2024-11-22_16h56.13.304,Disgust Thang,2024.1.5,None,2024-11-22 16h56.48.007649 +0530,
,,,,,,,14,Reservation system should be abolished in India. ,,,,,,,,,,,,,,,,,0,13,13,13,637.5770907999831,,,,,,,,,,,,,,,,,,,,,,,,,,,,,,,,,,,,,,,,,,,,,,,,,,,,,,,637.5546608000004,637.5770907999831,637.5770907999831,644.1869467999786,2.0,6.608679500001017,,,,ST,001,2024-11-22_16h56.13.304,Disgust Thang,2024.1.5,None,2024-11-22 16h56.48.007649 +0530,
,,,,,,,15,"The Prime Minister, without permission from the President, should be able to use the armed forces and call for an emergency in possible combat areas for as long as he/she deems necessary. ",,,,,,,,,,,,,,,,,0,14,14,14,644.211526900006,,,,,,,,,,,,,,,,,,,,,,,,,,,,,,,,,,,,,,,,,,,,,,,,,,,,,,,644.1871859999956,644.211526900006,644.211526900006,655.6687463999842,5.0,11.455782400007593,,,,ST,001,2024-11-22_16h56.13.304,Disgust Thang,2024.1.5,None,2024-11-22 16h56.48.007649 +0530,
,,,,,,,16R,"Laws should be passed to make it legal for public employees such as police, firemen, teachers, and garbage collectors to go on strike. ",,,,,,,,,,,,,,,,,0,15,15,15,655.6910079999943,,,,,,,,,,,,,,,,,,,,,,,,,,,,,,,,,,,,,,,,,,,,,,,,,,,,,,,655.6689860000042,655.6910079999943,655.6910079999943,664.4343783999793,1.0,8.74128980000387,,,,ST,001,2024-11-22_16h56.13.304,Disgust Thang,2024.1.5,None,2024-11-22 16h56.48.007649 +0530,
,,,,,,,17,Public schools should be required to teach the world's creation as written in the Bhagavad Gita in all classes that teach evolution theory.,,,,,,,,,,,,,,,,,0,16,16,16,664.4602205999836,,,,,,,,,,,,,,,,,,,,,,,,,,,,,,,,,,,,,,,,,,,,,,,,,,,,,,,664.4346294999996,664.4602205999836,664.4602205999836,682.3653769999801,4.0,17.90409369999543,,,,ST,001,2024-11-22_16h56.13.304,Disgust Thang,2024.1.5,None,2024-11-22 16h56.48.007649 +0530,
,,,,,,,18,"The government should mandate family planning counseling and reversible sterilization for low-income, unmarried women with three or more children. ",,,,,,,,,,,,,,,,,0,17,17,17,682.3883201999997,,,,,,,,,,,,,,,,,,,,,,,,,,,,,,,,,,,,,,,,,,,,,,,,,,,,,,,682.3656279999996,682.3883201999997,682.3883201999997,701.4962075999938,1.0,19.10593460002565,,,,ST,001,2024-11-22_16h56.13.304,Disgust Thang,2024.1.5,None,2024-11-22 16h56.48.007649 +0530,
,,,,,,,19R,"Birth control information, non-prescription contraceptive devices, and the morning-after pill should be made available on college campuses.",,,,,,,,,,,,,,,,,0,18,18,18,701.5189634999842,,,,,,,,,,,,,,,,,,,,,,,,,,,,,,,,,,,,,,,,,,,,,,,,,,,,,,,701.4964613000047,701.5189634999842,701.5189634999842,709.3119126999809,1.0,7.790794300002744,,,,ST,001,2024-11-22_16h56.13.304,Disgust Thang,2024.1.5,None,2024-11-22 16h56.48.007649 +0530,
,,,,,,,20,"Evidence gathered by the police, even if an honest mistake was made in getting a warrant, should be used to help prosecute suspected criminals. ",,,,,,,,,,,,,,,,,0,19,19,19,709.3349937000021,,,,,,,,,,,,,,,,,,,,,,,,,,,,,,,,,,,,,,,,,,,,,,,,,,,,,,,709.3121555999969,709.3349937000021,709.3349937000021,719.4605542999925,3.0,10.124536999996053,,,,ST,001,2024-11-22_16h56.13.304,Disgust Thang,2024.1.5,None,2024-11-22 16h56.48.007649 +0530,
,,,,,,,21,Inter-religious marriages should be abolished.,,,,,,,,,,,,,,,,,0,20,20,20,719.4805887999828,,,,,,,,,,,,,,,,,,,,,,,,,,,,,,,,,,,,,,,,,,,,,,,,,,,,,,,719.460794499988,719.4805887999828,719.4805887999828,724.8264909999853,5.0,5.3437954999972135,,,,ST,001,2024-11-22_16h56.13.304,Disgust Thang,2024.1.5,None,2024-11-22 16h56.48.007649 +0530,
,,,,,,,22R,"Requirements for any military duty, including combat, should be based on physical, emotional, and intellectual abilities, not gender or sexual orientation.",,,,,,,,,,,,,,,,,0,21,21,21,724.8492070999928,,,,,,,,,,,,,,,,,,,,,,,,,,,,,,,,,,,,,,,,,,,,,,,,,,,,,,,724.8268039999821,724.8492070999928,724.8492070999928,735.8419546999794,1.0,10.990994299994782,,,,ST,001,2024-11-22_16h56.13.304,Disgust Thang,2024.1.5,None,2024-11-22 16h56.48.007649 +0530,
,,,,,,,23R,The law should make private employers hire minorities if they are qualified because they have been victims of discrimination in the past. ,,,,,,,,,,,,,,,,,0,22,22,22,735.8655144999793,,,,,,,,,,,,,,,,,,,,,,,,,,,,,,,,,,,,,,,,,,,,,,,,,,,,,,,735.8421976999962,735.8655144999793,735.8655144999793,744.7407129999774,3.0,8.873755200009327,,,,ST,001,2024-11-22_16h56.13.304,Disgust Thang,2024.1.5,None,2024-11-22 16h56.48.007649 +0530,
,,,,,,,24,Certain literature should be banned from city libraries if the librarian feels it is improper or too controversial.,,,,,,,,,,,,,,,,,0,23,23,23,744.7631646999798,,,,,,,,,,,,,,,,,,,,,,,,,,,,,,,,,,,,,,,,,,,,,,,,,,,,,,,744.740956900001,744.7631646999798,744.7631646999798,754.0394588999916,4.0,9.274483700020937,,,,ST,001,2024-11-22_16h56.13.304,Disgust Thang,2024.1.5,None,2024-11-22 16h56.48.007649 +0530,
,,,,,,,25R,The government should interfere during conversion from one religion to another.,,,,,,,,,,,,,,,,,0,24,24,24,754.0607813999814,,,,,,,,,,,,,,,,,,,,,,,,,,,,,,,,,,,,,,,,,,,,,,,,,,,,,,,754.0397039999953,754.0607813999814,754.0607813999814,759.005362099997,5.0,4.9427806999883614,,,,ST,001,2024-11-22_16h56.13.304,Disgust Thang,2024.1.5,None,2024-11-22 16h56.48.007649 +0530,
,,,,,,,26R,The government should spend less on the military and more on education and the environment.,,,,,,,,,,,,,,,,,0,25,25,25,759.0268420999928,,,,,,,,,,,,,,,,,,,,,,,,,,,,,,,,,,,,,,,,,,,,,,,,,,,,,,,759.0056056999892,759.0268420999928,759.0268420999928,764.9212847999879,3.0,5.892261200002395,,,,ST,001,2024-11-22_16h56.13.304,Disgust Thang,2024.1.5,None,2024-11-22 16h56.48.007649 +0530,
,,,,,,,27R,India should not trade with or help any nation that violates human rights.,,,,,,,,,,,,,,,,,0,26,26,26,764.9456973999913,,,,,,,,,,,,,,,,,,,,,,,,,,,,,,,,,,,,,,,,,,,,,,,,,,,,,,,764.9215294999885,764.9456973999913,764.9456973999913,765.721235200006,4.0,0.7765930999885313,,,,ST,001,2024-11-22_16h56.13.304,Disgust Thang,2024.1.5,None,2024-11-22 16h56.48.007649 +0530,
,,,,,,,28,People planning to get married should have a mandatory test for STDs such as AIDS and gonorrhea before a marriage certificate can be issued. ,,,,,,,,,,,,,,,,,0,27,27,27,765.7456444999843,,,,,,,,,,,,,,,,,,,,,,,,,,,,,,,,,,,,,,,,,,,,,,,,,,,,,,,765.7214826999989,765.7456444999843,765.7456444999843,791.6513692000008,3.0,25.90421890001744,,,,ST,001,2024-11-22_16h56.13.304,Disgust Thang,2024.1.5,None,2024-11-22 16h56.48.007649 +0530,
,,,,,,,29,"There are too many lawsuits in the courts, and the courts do not have the time to deal with more severe issues. ",,,,,,,,,,,,,,,,,0,28,28,28,791.6734585999802,,,,,,,,,,,,,,,,,,,,,,,,,,,,,,,,,,,,,,,,,,,,,,,,,,,,,,,791.6516248999978,791.6734585999802,791.6734585999802,801.783205499989,1.0,10.107962300011422,,,,ST,001,2024-11-22_16h56.13.304,Disgust Thang,2024.1.5,None,2024-11-22 16h56.48.007649 +0530,
,,,,,,,30R,Nuclear power and nuclear-generating stations should be banned. ,,,,,,,,,,,,,,,,,0,29,29,29,801.805537999986,,,,,,,,,,,,,,,,,,,,,,,,,,,,,,,,,,,,,,,,,,,,,,,,,,,,,,,801.7834481000027,801.805537999986,801.805537999986,804.5661881999986,5.0,2.7591759000206366,,,,ST,001,2024-11-22_16h56.13.304,Disgust Thang,2024.1.5,None,2024-11-22 16h56.48.007649 +0530,
,,,,,,,31R,The death penalty is clearly a form of cruel and unusual punishment and should be banned. ,,,,,,,,,,,,,,,,,0,30,30,30,804.587246799987,,,,,,,,,,,,,,,,,,,,,,,,,,,,,,,,,,,,,,,,,,,,,,,,,,,,,,,804.5664307999832,804.587246799987,804.587246799987,810.0822863999929,5.0,5.492891800007783,,,,ST,001,2024-11-22_16h56.13.304,Disgust Thang,2024.1.5,None,2024-11-22 16h56.48.007649 +0530,
,,,,,,,32R,Sexual harassment of women in the workplace is a serious problem and should be prosecuted under law,,,,,,,,,,,,,,,,,0,31,31,31,810.1034393000009,,,,,,,,,,,,,,,,,,,,,,,,,,,,,,,,,,,,,,,,,,,,,,,,,,,,,,,810.0825311999943,810.1034393000009,810.1034393000009,821.3139991999778,2.0,11.208380900003249,,,,ST,001,2024-11-22_16h56.13.304,Disgust Thang,2024.1.5,None,2024-11-22 16h56.48.007649 +0530,
,,,,,,,33R,"The primary function of prisons should be to rehabilitate criminals, not to punish them. ",,,,,,,,,,,,,,,,,0,32,32,32,821.335411099979,,,,,,,,,,,,,,,,,,,,,,,,,,,,,,,,,,,,,,,,,,,,,,,,,,,,,,,821.3142472000036,821.335411099979,821.335411099979,846.1443946999789,1.0,24.806748200004222,,,,ST,001,2024-11-22_16h56.13.304,Disgust Thang,2024.1.5,None,2024-11-22 16h56.48.007649 +0530,
,,,,,,,34R,The states should abolish criminal penalties for victimless crimes such as gambling and prostitution. ,,,,,,,,,,,,,,,,,0,33,33,33,846.1657603999774,,,,,,,,,,,,,,,,,,,,,,,,,,,,,,,,,,,,,,,,,,,,,,,,,,,,,,,846.1446349000034,846.1657603999774,846.1657603999774,856.526280399994,1.0,10.358468699996592,,,,ST,001,2024-11-22_16h56.13.304,Disgust Thang,2024.1.5,None,2024-11-22 16h56.48.007649 +0530,
,,,,,,,35,The CBI should be able to wiretap the phones and read the mail of suspected individuals.,,,,,,,,,,,,,,,,,0,34,34,34,856.5485978999932,,,,,,,,,,,,,,,,,,,,,,,,,,,,,,,,,,,,,,,,,,,,,,,,,,,,,,,856.5265205999895,856.5485978999932,856.5485978999932,861.8756677999918,2.0,5.325460499996552,,,,ST,001,2024-11-22_16h56.13.304,Disgust Thang,2024.1.5,None,2024-11-22 16h56.48.007649 +0530,
,,,,,,,36R,"The central government must take strong steps to reverse global warming, even if it means losing some jobs. ",,,,,,,,,,,,,,,,,0,35,35,35,861.897412499995,,,,,,,,,,,,,,,,,,,,,,,,,,,,,,,,,,,,,,,,,,,,,,,,,,,,,,,861.8759040999867,861.897412499995,861.897412499995,870.1578519000032,2.0,8.258243400021456,,,,ST,001,2024-11-22_16h56.13.304,Disgust Thang,2024.1.5,None,2024-11-22 16h56.48.007649 +0530,
,,,,,,,37,Most youth who fall under the reservation scheme today are lazy and do not want to work.,,,,,,,,,,,,,,,,,0,36,36,36,870.1834431999887,,,,,,,,,,,,,,,,,,,,,,,,,,,,,,,,,,,,,,,,,,,,,,,,,,,,,,,870.1580948999908,870.1834431999887,870.1834431999887,888.0056518999918,5.0,17.8211544000078,,,,ST,001,2024-11-22_16h56.13.304,Disgust Thang,2024.1.5,None,2024-11-22 16h56.48.007649 +0530,
,,,,,,,38,Profanity and sexually oriented material on television should be stopped or penalized by the government. ,,,,,,,,,,,,,,,,,0,37,37,37,888.0279159999918,,,,,,,,,,,,,,,,,,,,,,,,,,,,,,,,,,,,,,,,,,,,,,,,,,,,,,,888.005908799998,888.0279159999918,888.0279159999918,892.1217632000044,5.0,4.092132000019774,,,,ST,001,2024-11-22_16h56.13.304,Disgust Thang,2024.1.5,None,2024-11-22 16h56.48.007649 +0530,
,,,,,,,39,"The government must stop the flow of immigrants, both legal and illegal, from Bangladesh.",,,,,,,,,,,,,,,,,0,38,38,38,892.1435285999905,,,,,,,,,,,,,,,,,,,,,,,,,,,,,,,,,,,,,,,,,,,,,,,,,,,,,,,892.1220052999852,892.1435285999905,892.1435285999905,899.3375142999867,4.0,7.192234599991934,,,,ST,001,2024-11-22_16h56.13.304,Disgust Thang,2024.1.5,None,2024-11-22 16h56.48.007649 +0530,
,,,,,,,40R,There should be sensitization classes for individuals in the LGBTQ+ community in school.,,,,,,,,,,,,,,,,,0,39,39,39,899.36027439998,,,,,,,,,,,,,,,,,,,,,,,,,,,,,,,,,,,,,,,,,,,,,,,,,,,,,,,899.3377566999989,899.36027439998,899.36027439998,902.6704946999962,2.0,3.308179800020298,,,,ST,001,2024-11-22_16h56.13.304,Disgust Thang,2024.1.5,None,2024-11-22 16h56.48.007649 +0530,
,,,,,,,,,,,,,,,,,,,,,,,,,,,,,,,,,,,,,,,,,,,,,,,,,,,,,,,,,,,,,,,,,,,,,,,,,,,,,,,,,,,,,,,,,,902.6706682999793,902.6849439999787,912.6837128000043,ST,001,2024-11-22_16h56.13.304,Disgust Thang,2024.1.5,None,2024-11-22 16h56.48.007649 +0530,
