dsr1_no,dsr1,dsr2_no,dsr_e,math_q,correct_resp,image_disgust,no,pol_ques,trials_4.thisRepN,trials_4.thisTrialN,trials_4.thisN,trials_4.thisIndex,trials_5.thisRepN,trials_5.thisTrialN,trials_5.thisN,trials_5.thisIndex,trials_3.thisRepN,trials_3.thisTrialN,trials_3.thisN,trials_3.thisIndex,trials.thisRepN,trials.thisTrialN,trials.thisN,trials.thisIndex,trials_2.thisRepN,trials_2.thisTrialN,trials_2.thisN,trials_2.thisIndex,thisRow.t,notes,consent_form.started,text_10.started,button_2.started,consent_form.stopped,button_2.numClicks,button_2.timesOn,button_2.timesOff,Introduction.started,text_3.started,button.started,Introduction.stopped,button.numClicks,button.timesOn,button.timesOff,dsr_a.started,text_6.started,text_7.started,slider_3.started,dsr_a.stopped,slider_3.response,slider_3.rt,dsr_b.started,text_8.started,text_9.started,slider_4.started,dsr_b.stopped,slider_4.response,slider_4.rt,distractor.started,text.started,textbox.started,buton.started,distractor.stopped,textbox.text,buton.numClicks,buton.timesOn,buton.timesOff,encoding.started,polygon.started,image.started,polygon.stopped,slider.started,image.stopped,encoding.stopped,slider.response,slider.rt,instruction.started,text_4.started,Button.started,instruction.stopped,Button.numClicks,Button.timesOn,Button.timesOff,testing.started,text_2.started,slider_2.started,testing.stopped,slider_2.response,slider_2.rt,exit_message.started,text_5.started,text_5.stopped,exit_message.stopped,participant,session,date,expName,psychopyVersion,frameRate,expStart,
,,,,,,,,,,,,,,,,,,,,,,,,,,,,,,,0.004353900003479794,0.015192999999271706,0.015192999999271706,417.7686404999986,1,[417.76145569997607],[417.76146899999003],,,,,,,,,,,,,,,,,,,,,,,,,,,,,,,,,,,,,,,,,,,,,,,,,,,,,,,,,TS,001,2024-11-22_12h14.33.556,Disgust Thang,2024.1.5,None,2024-11-22 12h14.53.671147 +0530,
,,,,,,,,,,,,,,,,,,,,,,,,,,,,,,,,,,,,,,417.76872800002457,417.7762110000185,417.7762110000185,421.8092784000037,1,[4.039707299991278],[4.039712700003292],,,,,,,,,,,,,,,,,,,,,,,,,,,,,,,,,,,,,,,,,,,,,,,,,,TS,001,2024-11-22_12h14.33.556,Disgust Thang,2024.1.5,None,2024-11-22 12h14.53.671147 +0530,
1r,"I might be willing to try eating monkey meat, under some circumstances",,,,,,,,0,0,0,0,,,,,,,,,,,,,,,,,421.96519700001227,,,,,,,,,,,,,,,,421.91231240000343,421.96519700001227,421.96519700001227,421.96519700001227,422.05115550002665,2.0,0.11799520000931807,,,,,,,,,,,,,,,,,,,,,,,,,,,,,,,,,,,,,,,,,,,TS,001,2024-11-22_12h14.33.556,Disgust Thang,2024.1.5,None,2024-11-22 12h14.53.671147 +0530,
2,"It would bother me to be in a science class, and to see a human hand preserved in a jar",,,,,,,,0,1,1,1,,,,,,,,,,,,,,,,,422.1029501000012,,,,,,,,,,,,,,,,422.08102110002073,422.1029501000012,422.1029501000012,422.1029501000012,438.8245763000159,0.0,16.719240800011903,,,,,,,,,,,,,,,,,,,,,,,,,,,,,,,,,,,,,,,,,,,TS,001,2024-11-22_12h14.33.556,Disgust Thang,2024.1.5,None,2024-11-22 12h14.53.671147 +0530,
3,It bothers me to hear someone clear a throat full of mucous,,,,,,,,0,2,2,2,,,,,,,,,,,,,,,,,438.8440000000119,,,,,,,,,,,,,,,,438.82483540000976,438.8440000000119,438.8440000000119,438.8440000000119,440.79100950001157,0.0,1.9449193000036757,,,,,,,,,,,,,,,,,,,,,,,,,,,,,,,,,,,,,,,,,,,TS,001,2024-11-22_12h14.33.556,Disgust Thang,2024.1.5,None,2024-11-22 12h14.53.671147 +0530,
4,I never let any part of my body touch the toilet seat in public restrooms. ,,,,,,,,0,3,3,3,,,,,,,,,,,,,,,,,440.8109549000219,,,,,,,,,,,,,,,,440.79124970000703,440.8109549000219,440.8109549000219,440.8109549000219,443.9241047000105,1.0,3.111040999996476,,,,,,,,,,,,,,,,,,,,,,,,,,,,,,,,,,,,,,,,,,,TS,001,2024-11-22_12h14.33.556,Disgust Thang,2024.1.5,None,2024-11-22 12h14.53.671147 +0530,
5,I would go out of my way to avoid walking through a graveyard. ,,,,,,,,0,4,4,4,,,,,,,,,,,,,,,,,443.9436443000159,,,,,,,,,,,,,,,,443.9243236000184,443.9436443000159,443.9436443000159,443.9436443000159,450.4399201000051,0.0,6.494190900004469,,,,,,,,,,,,,,,,,,,,,,,,,,,,,,,,,,,,,,,,,,,TS,001,2024-11-22_12h14.33.556,Disgust Thang,2024.1.5,None,2024-11-22 12h14.53.671147 +0530,
6r,Seeing a cockroach in someone else's house doesn't bother me. ,,,,,,,,0,5,5,5,,,,,,,,,,,,,,,,,450.4616907000018,,,,,,,,,,,,,,,,450.4401332999987,450.4616907000018,450.4616907000018,450.4616907000018,456.78904840000905,1.0,6.325422599999001,,,,,,,,,,,,,,,,,,,,,,,,,,,,,,,,,,,,,,,,,,,TS,001,2024-11-22_12h14.33.556,Disgust Thang,2024.1.5,None,2024-11-22 12h14.53.671147 +0530,
7,It would bother me tremendously to touch a dead body. ,,,,,,,,0,6,6,6,,,,,,,,,,,,,,,,,456.8082254000183,,,,,,,,,,,,,,,,456.78926470002625,456.8082254000183,456.8082254000183,456.8082254000183,466.0878241000173,2.0,9.277253999985987,,,,,,,,,,,,,,,,,,,,,,,,,,,,,,,,,,,,,,,,,,,TS,001,2024-11-22_12h14.33.556,Disgust Thang,2024.1.5,None,2024-11-22 12h14.53.671147 +0530,
8,"If I see someone vomit, it makes me sick to my stomach. ",,,,,,,,0,7,7,7,,,,,,,,,,,,,,,,,466.1075163000205,,,,,,,,,,,,,,,,466.0880445000075,466.1075163000205,466.1075163000205,466.1075163000205,468.42105910001555,4.0,2.3113862999889534,,,,,,,,,,,,,,,,,,,,,,,,,,,,,,,,,,,,,,,,,,,TS,001,2024-11-22_12h14.33.556,Disgust Thang,2024.1.5,None,2024-11-22 12h14.53.671147 +0530,
9,I probably would not go to my favorite restaurant if I found out that the cook had a cold. ,,,,,,,,0,8,8,8,,,,,,,,,,,,,,,,,468.4409061000042,,,,,,,,,,,,,,,,468.42127260001143,468.4409061000042,468.4409061000042,468.4409061000042,472.1871738000191,0.0,3.743941199994879,,,,,,,,,,,,,,,,,,,,,,,,,,,,,,,,,,,,,,,,,,,TS,001,2024-11-22_12h14.33.556,Disgust Thang,2024.1.5,None,2024-11-22 12h14.53.671147 +0530,
10r,"It would not upset me at all to watch a person with a glass eye take the eye 
out of the socket.  ",,,,,,,,0,9,9,9,,,,,,,,,,,,,,,,,472.20802000002004,,,,,,,,,,,,,,,,472.18738529999973,472.20802000002004,472.20802000002004,472.20802000002004,476.4362832000188,4.0,4.225993400003063,,,,,,,,,,,,,,,,,,,,,,,,,,,,,,,,,,,,,,,,,,,TS,001,2024-11-22_12h14.33.556,Disgust Thang,2024.1.5,None,2024-11-22 12h14.53.671147 +0530,
11,It would bother me to see a rat run across my path in a park. ,,,,,,,,0,10,10,10,,,,,,,,,,,,,,,,,476.4557720000157,,,,,,,,,,,,,,,,476.4364980000246,476.4557720000157,476.4557720000157,476.4557720000157,482.0024625000078,0.0,5.544465999992099,,,,,,,,,,,,,,,,,,,,,,,,,,,,,,,,,,,,,,,,,,,TS,001,2024-11-22_12h14.33.556,Disgust Thang,2024.1.5,None,2024-11-22 12h14.53.671147 +0530,
12d,I would rather eat a piece of fruit than a piece of paper ,,,,,,,,0,11,11,11,,,,,,,,,,,,,,,,,482.0221387000056,,,,,,,,,,,,,,,,482.0026765000075,482.0221387000056,482.0221387000056,482.0221387000056,488.7852241000219,4.0,6.760772499983432,,,,,,,,,,,,,,,,,,,,,,,,,,,,,,,,,,,,,,,,,,,TS,001,2024-11-22_12h14.33.556,Disgust Thang,2024.1.5,None,2024-11-22 12h14.53.671147 +0530,
13,"Even if I was hungry, I would not drink a bowl of my favorite soup if it had been
stirred by a used but thoroughly washed flyswatter. ",,,,,,,,0,12,12,12,,,,,,,,,,,,,,,,,488.8085629999987,,,,,,,,,,,,,,,,488.7854396000039,488.8085629999987,488.8085629999987,488.8085629999987,497.70056220001425,4.0,8.88981409999542,,,,,,,,,,,,,,,,,,,,,,,,,,,,,,,,,,,,,,,,,,,TS,001,2024-11-22_12h14.33.556,Disgust Thang,2024.1.5,None,2024-11-22 12h14.53.671147 +0530,
14,"It would bother me to sleep in a nice hotel room if I knew that a man had died of a
heart attack in that room the night before. ",,,,,,,,0,13,13,13,,,,,,,,,,,,,,,,,497.72154280001996,,,,,,,,,,,,,,,,497.70078260000446,497.72154280001996,497.72154280001996,497.72154280001996,508.94890270000906,0.0,11.225179800007027,,,,,,,,,,,,,,,,,,,,,,,,,,,,,,,,,,,,,,,,,,,TS,001,2024-11-22_12h14.33.556,Disgust Thang,2024.1.5,None,2024-11-22 12h14.53.671147 +0530,
,,15,You see maggots on a piece of meat in an outdoor garbage pail. ,,,,,,,,,,0,0,0,0,,,,,,,,,,,,,508.97476710000774,,,,,,,,,,,,,,,,,,,,,,,508.9531973999983,508.97476710000774,508.97476710000774,508.97476710000774,512.8652271000028,3.0,3.890261599997757,,,,,,,,,,,,,,,,,,,,,,,,,,,,,,,,,,,,TS,001,2024-11-22_12h14.33.556,Disgust Thang,2024.1.5,None,2024-11-22 12h14.53.671147 +0530,
,,16d,You see a person eating an apple with a knife and fork,,,,,,,,,,0,1,1,1,,,,,,,,,,,,,512.8849141000246,,,,,,,,,,,,,,,,,,,,,,,512.8655042000173,512.8849141000246,512.8849141000246,512.8849141000246,516.2480479000078,0.0,3.3611321999924257,,,,,,,,,,,,,,,,,,,,,,,,,,,,,,,,,,,,TS,001,2024-11-22_12h14.33.556,Disgust Thang,2024.1.5,None,2024-11-22 12h14.53.671147 +0530,
,,17,"While you are walking through a tunnel under a railroad track, you smell urine. ",,,,,,,,,,0,2,2,2,,,,,,,,,,,,,516.270614100009,,,,,,,,,,,,,,,,,,,,,,,516.2482613000029,516.270614100009,516.270614100009,516.270614100009,526.7968720000063,1.0,10.523937100020703,,,,,,,,,,,,,,,,,,,,,,,,,,,,,,,,,,,,TS,001,2024-11-22_12h14.33.556,Disgust Thang,2024.1.5,None,2024-11-22 12h14.53.671147 +0530,
,,18,"You take a sip of soda, and then realize that you drank from the glass that an
 		acquaintance of yours had been drinking from",,,,,,,,,,0,3,3,3,,,,,,,,,,,,,526.8209617000248,,,,,,,,,,,,,,,,,,,,,,,526.7970870000136,526.8209617000248,526.8209617000248,526.8209617000248,531.8796103000059,0.0,5.056501299986849,,,,,,,,,,,,,,,,,,,,,,,,,,,,,,,,,,,,TS,001,2024-11-22_12h14.33.556,Disgust Thang,2024.1.5,None,2024-11-22 12h14.53.671147 +0530,
,,19,"Your friend's pet cat dies, and you have to pick up the dead body with your bare hands.  ",,,,,,,,,,0,4,4,4,,,,,,,,,,,,,531.8999792000104,,,,,,,,,,,,,,,,,,,,,,,531.8798416000209,531.8999792000104,531.8999792000104,531.8999792000104,535.6122196000069,0.0,3.7101646000228357,,,,,,,,,,,,,,,,,,,,,,,,,,,,,,,,,,,,TS,001,2024-11-22_12h14.33.556,Disgust Thang,2024.1.5,None,2024-11-22 12h14.53.671147 +0530,
,,20,"You see someone put ketchup on vanilla ice cream, and eat it. ",,,,,,,,,,0,5,5,5,,,,,,,,,,,,,535.6317699000065,,,,,,,,,,,,,,,,,,,,,,,535.6124352000188,535.6317699000065,535.6317699000065,535.6317699000065,539.2283661000256,1.0,3.5944449999951757,,,,,,,,,,,,,,,,,,,,,,,,,,,,,,,,,,,,TS,001,2024-11-22_12h14.33.556,Disgust Thang,2024.1.5,None,2024-11-22 12h14.53.671147 +0530,
,,21,You see a man with his intestines exposed after an accident. ,,,,,,,,,,0,6,6,6,,,,,,,,,,,,,539.2475034000236,,,,,,,,,,,,,,,,,,,,,,,539.2285807000007,539.2475034000236,539.2475034000236,539.2475034000236,543.3280302000057,2.0,4.078317900013644,,,,,,,,,,,,,,,,,,,,,,,,,,,,,,,,,,,,TS,001,2024-11-22_12h14.33.556,Disgust Thang,2024.1.5,None,2024-11-22 12h14.53.671147 +0530,
,,22,You discover that a friend of yours changes underwear only once a week. ,,,,,,,,,,0,7,7,7,,,,,,,,,,,,,543.3480345999997,,,,,,,,,,,,,,,,,,,,,,,543.3282425000216,543.3480345999997,543.3480345999997,543.3480345999997,547.560632800014,3.0,4.210474899999099,,,,,,,,,,,,,,,,,,,,,,,,,,,,,,,,,,,,TS,001,2024-11-22_12h14.33.556,Disgust Thang,2024.1.5,None,2024-11-22 12h14.53.671147 +0530,
,,23,A friend offers you a piece of chocolate shaped like dog doo. ,,,,,,,,,,0,8,8,8,,,,,,,,,,,,,547.5815219000215,,,,,,,,,,,,,,,,,,,,,,,547.5608440000215,547.5815219000215,547.5815219000215,547.5815219000215,552.0767922000086,1.0,4.4931501999963075,,,,,,,,,,,,,,,,,,,,,,,,,,,,,,,,,,,,TS,001,2024-11-22_12h14.33.556,Disgust Thang,2024.1.5,None,2024-11-22 12h14.53.671147 +0530,
,,24,You accidentally touch the ashes of a person who has been cremated. ,,,,,,,,,,0,9,9,9,,,,,,,,,,,,,552.0966564000119,,,,,,,,,,,,,,,,,,,,,,,552.077004700026,552.0966564000119,552.0966564000119,552.0966564000119,555.6096210000105,0.0,3.5110253999882843,,,,,,,,,,,,,,,,,,,,,,,,,,,,,,,,,,,,TS,001,2024-11-22_12h14.33.556,Disgust Thang,2024.1.5,None,2024-11-22 12h14.53.671147 +0530,
,,25,You are about to drink a glass of milk when you smell that it is spoiled. ,,,,,,,,,,0,10,10,10,,,,,,,,,,,,,555.6291880000208,,,,,,,,,,,,,,,,,,,,,,,555.609841700003,555.6291880000208,555.6291880000208,555.6291880000208,561.025867600023,1.0,5.394223000010243,,,,,,,,,,,,,,,,,,,,,,,,,,,,,,,,,,,,TS,001,2024-11-22_12h14.33.556,Disgust Thang,2024.1.5,None,2024-11-22 12h14.53.671147 +0530,
,,26,"As part of a sex education class, you are required to inflate a new unlubricated
		condom, using your mouth. ",,,,,,,,,,0,11,11,11,,,,,,,,,,,,,561.046245400008,,,,,,,,,,,,,,,,,,,,,,,561.0261028000095,561.046245400008,561.046245400008,561.046245400008,564.1086886000121,1.0,3.0602257999998983,,,,,,,,,,,,,,,,,,,,,,,,,,,,,,,,,,,,TS,001,2024-11-22_12h14.33.556,Disgust Thang,2024.1.5,None,2024-11-22 12h14.53.671147 +0530,
,,27,"You are walking barefoot on concrete, and you step on an earthworm. ",,,,,,,,,,0,12,12,12,,,,,,,,,,,,,564.1281491000263,,,,,,,,,,,,,,,,,,,,,,,564.1089009999996,564.1281491000263,564.1281491000263,564.1281491000263,568.974646800023,0.0,4.8441825000045355,,,,,,,,,,,,,,,,,,,,,,,,,,,,,,,,,,,,TS,001,2024-11-22_12h14.33.556,Disgust Thang,2024.1.5,None,2024-11-22 12h14.53.671147 +0530,
,,,,15-7,8,,,,,,,,,,,,0,0,0,0,,,,,,,,,568.9917319000233,,,,,,,,,,,,,,,,,,,,,,,,,,,,,,568.9786265000002,568.9917319000233,568.9917319000233,568.9917319000233,589.3056960000249,8,1,[20.32276839998667],[20.322775399981765],,,,,,,,,,,,,,,,,,,,,,,,,,,TS,001,2024-11-22_12h14.33.556,Disgust Thang,2024.1.5,None,2024-11-22 12h14.53.671147 +0530,
,,,,5*7,35,,,,,,,,,,,,0,1,1,1,,,,,,,,,589.3194606000034,,,,,,,,,,,,,,,,,,,,,,,,,,,,,,589.3061597000051,589.3194606000034,589.3194606000034,589.3194606000034,594.7035314000095,35,1,[5.393944899988128],[5.393950400000904],,,,,,,,,,,,,,,,,,,,,,,,,,,TS,001,2024-11-22_12h14.33.556,Disgust Thang,2024.1.5,None,2024-11-22 12h14.53.671147 +0530,
,,,,42/7,6,,,,,,,,,,,,0,2,2,2,,,,,,,,,594.7188915000006,,,,,,,,,,,,,,,,,,,,,,,,,,,,,,594.7038729000196,594.7188915000006,594.7188915000006,594.7188915000006,605.1690042000264,6,1,[10.459658500010846],[10.459664000023622],,,,,,,,,,,,,,,,,,,,,,,,,,,TS,001,2024-11-22_12h14.33.556,Disgust Thang,2024.1.5,None,2024-11-22 12h14.53.671147 +0530,
,,,,51-17,34,,,,,,,,,,,,0,3,3,3,,,,,,,,,605.1842988000135,,,,,,,,,,,,,,,,,,,,,,,,,,,,,,605.1693459000089,605.1842988000135,605.1842988000135,605.1842988000135,621.101394199999,34,1,[15.929650799982483],[15.929656899999827],,,,,,,,,,,,,,,,,,,,,,,,,,,TS,001,2024-11-22_12h14.33.556,Disgust Thang,2024.1.5,None,2024-11-22 12h14.53.671147 +0530,
,,,,19*8,152,,,,,,,,,,,,0,4,4,4,,,,,,,,,621.1155760000111,,,,,,,,,,,,,,,,,,,,,,,,,,,,,,621.1017290000163,621.1155760000111,621.1155760000111,621.1155760000111,712.6385169000132,162,1,[91.53257599999779],[91.53258179998375],,,,,,,,,,,,,,,,,,,,,,,,,,,TS,001,2024-11-22_12h14.33.556,Disgust Thang,2024.1.5,None,2024-11-22 12h14.53.671147 +0530,
,,,,6* (25+3),168,,,,,,,,,,,,0,5,5,5,,,,,,,,,712.6538957000012,,,,,,,,,,,,,,,,,,,,,,,,,,,,,,712.6388617000193,712.6538957000012,712.6538957000012,712.6538957000012,771.4987659000035,10,1,[58.85475110000698],[58.85475719999522],,,,,,,,,,,,,,,,,,,,,,,,,,,TS,001,2024-11-22_12h14.33.556,Disgust Thang,2024.1.5,None,2024-11-22 12h14.53.671147 +0530,
,,,,,,images/1118_body products.png,,,,,,,,,,,,,,,0,0,0,3,,,,,771.9874509000219,,,,,,,,,,,,,,,,,,,,,,,,,,,,,,,,,,,,,,,771.8734331000014,771.9874509000219,772.5205558000016,772.9968597000116,779.5120375000115,782.5282493999985,783.7472673000011,1.125925925925926,11.750648399989586,,,,,,,,,,,,,,,,,,TS,001,2024-11-22_12h14.33.556,Disgust Thang,2024.1.5,None,2024-11-22 12h14.53.671147 +0530,
,,,,,,images/1201_death.png,,,,,,,,,,,,,,,0,1,1,6,,,,,783.8162792000221,,,,,,,,,,,,,,,,,,,,,,,,,,,,,,,,,,,,,,,783.7475479000132,783.8162792000221,784.7627407000109,784.8287226000102,791.7604451000225,,793.4960735000204,1.9222222222222223,9.669839200010756,,,,,,,,,,,,,,,,,,TS,001,2024-11-22_12h14.33.556,Disgust Thang,2024.1.5,None,2024-11-22 12h14.53.671147 +0530,
,,,,,,images/1253_hygiene.png,,,,,,,,,,,,,,,0,2,2,8,,,,,793.5521260000241,,,,,,,,,,,,,,,,,,,,,,,,,,,,,,,,,,,,,,,793.4962787000113,793.5521260000241,794.5115460000234,794.5607438000152,801.50912230002,,804.0781423000153,1.6592592592592592,10.516023500007577,,,,,,,,,,,,,,,,,,TS,001,2024-11-22_12h14.33.556,Disgust Thang,2024.1.5,None,2024-11-22 12h14.53.671147 +0530,
,,,,,,images/1182_injuries_infections.png,,,,,,,,,,,,,,,0,3,3,5,,,,,804.1294870999991,,,,,,,,,,,,,,,,,,,,,,,,,,,,,,,,,,,,,,,804.0783456000208,804.1294870999991,805.0933216999983,805.1427412000194,812.0910937000008,815.1073949999991,818.24263600001,3.0481481481481483,14.103602499992121,,,,,,,,,,,,,,,,,,TS,001,2024-11-22_12h14.33.556,Disgust Thang,2024.1.5,None,2024-11-22 12h14.53.671147 +0530,
,,,,,,images/1218_death.png,,,,,,,,,,,,,,,0,4,4,7,,,,,818.2954309000052,,,,,,,,,,,,,,,,,,,,,,,,,,,,,,,,,,,,,,,818.2428476000205,818.2954309000052,819.258350100019,819.3076059000159,826.2558770000178,829.2722059000225,830.2746888000111,1.951851851851852,11.97013390000211,,,,,,,,,,,,,,,,,,TS,001,2024-11-22_12h14.33.556,Disgust Thang,2024.1.5,None,2024-11-22 12h14.53.671147 +0530,
,,,,,,images/1033_food.png,,,,,,,,,,,,,,,0,5,5,0,,,,,830.3895075000182,,,,,,,,,,,,,,,,,,,,,,,,,,,,,,,,,,,,,,,830.2749017000024,830.3895075000182,831.2900537000096,831.3894183000084,838.2876871000044,,840.3067218000069,1,9.907501200010302,,,,,,,,,,,,,,,,,,TS,001,2024-11-22_12h14.33.556,Disgust Thang,2024.1.5,None,2024-11-22 12h14.53.671147 +0530,
,,,,,,images/1171_injuries_infections.png,,,,,,,,,,,,,,,0,6,6,4,,,,,840.4211026999983,,,,,,,,,,,,,,,,,,,,,,,,,,,,,,,,,,,,,,,840.3069299000199,840.4211026999983,841.3219614000118,841.4214753000124,848.3198043000011,851.3359505000117,854.3212975000206,3.1074074074074076,13.890333499992266,,,,,,,,,,,,,,,,,,TS,001,2024-11-22_12h14.33.556,Disgust Thang,2024.1.5,None,2024-11-22 12h14.53.671147 +0530,
,,,,,,images/1110_body products.png,,,,,,,,,,,,,,,0,7,7,2,,,,,854.714621000021,,,,,,,,,,,,,,,,,,,,,,,,,,,,,,,,,,,,,,,854.3215028000122,854.714621000021,855.337076100026,855.7197915000143,862.3347589000186,,864.2701197999995,2.022222222222222,9.545462300011422,,,,,,,,,,,,,,,,,,TS,001,2024-11-22_12h14.33.556,Disgust Thang,2024.1.5,None,2024-11-22 12h14.53.671147 +0530,
,,,,,,images/1034_food.png,,,,,,,,,,,,,,,0,8,8,1,,,,,864.3958202000067,,,,,,,,,,,,,,,,,,,,,,,,,,,,,,,,,,,,,,,864.2705168000248,864.3958202000067,865.2856484000222,865.4016991000099,872.2834526000079,,873.6524606000166,1.0444444444444445,9.246767099975841,,,,,,,,,,,,,,,,,,TS,001,2024-11-22_12h14.33.556,Disgust Thang,2024.1.5,None,2024-11-22 12h14.53.671147 +0530,
,,,,,,,,,,,,,,,,,,,,,,,,,,,,,,,,,,,,,,,,,,,,,,,,,,,,,,,,,,,,,,,,,,,,,,,,,,,,,873.6526000000013,873.6669941,873.6669941,876.2679753999982,1,[2.6145510000060312],[2.6145565999904647],,,,,,,,,,,TS,001,2024-11-22_12h14.33.556,Disgust Thang,2024.1.5,None,2024-11-22 12h14.53.671147 +0530,
,,,,,,,1R,The government should pass a Constitutional amendment that would make it illegal to discriminate against anyone in any situation based on sexual orientation.,,,,,,,,,,,,,,,,,0,0,0,0,876.3242695000081,,,,,,,,,,,,,,,,,,,,,,,,,,,,,,,,,,,,,,,,,,,,,,,,,,,,,,,876.2747378000058,876.3242695000081,876.3242695000081,876.5017872000171,3.0,0.20163279998814687,,,,,TS,001,2024-11-22_12h14.33.556,Disgust Thang,2024.1.5,None,2024-11-22 12h14.53.671147 +0530,
,,,,,,,2R,"The national government should establish a centrally funded medical program so that all persons, regardless of means, have access to medical care.",,,,,,,,,,,,,,,,,0,1,1,1,876.5226582000032,,,,,,,,,,,,,,,,,,,,,,,,,,,,,,,,,,,,,,,,,,,,,,,,,,,,,,,876.5020747000235,876.5226582000032,876.5226582000032,889.4169040000124,2.0,12.891651600017212,,,,,TS,001,2024-11-22_12h14.33.556,Disgust Thang,2024.1.5,None,2024-11-22 12h14.53.671147 +0530,
,,,,,,,3,It should be legal and constitutional to say a prayer at the beginning of assemblies in public schools.,,,,,,,,,,,,,,,,,0,2,2,2,889.4368607000215,,,,,,,,,,,,,,,,,,,,,,,,,,,,,,,,,,,,,,,,,,,,,,,,,,,,,,,889.4171245000034,889.4368607000215,889.4368607000215,893.7165562000009,4.0,4.277281499991659,,,,,TS,001,2024-11-22_12h14.33.556,Disgust Thang,2024.1.5,None,2024-11-22 12h14.53.671147 +0530,
,,,,,,,4R,Persons should be allowed to join and serve in the military regardless of their sexual preference as long as their behavior meets strict military standards.,,,,,,,,,,,,,,,,,0,3,3,3,893.7437492000172,,,,,,,,,,,,,,,,,,,,,,,,,,,,,,,,,,,,,,,,,,,,,,,,,,,,,,,893.716839700006,893.7437492000172,893.7437492000172,901.815497100004,1.0,8.072484000003897,,,,,TS,001,2024-11-22_12h14.33.556,Disgust Thang,2024.1.5,None,2024-11-22 12h14.53.671147 +0530,
,,,,,,,5R,A person should be able to use and grow small quantities of marijuana in the privacy of his or her own home with no legal consequences.,,,,,,,,,,,,,,,,,0,4,4,4,901.8381617999985,,,,,,,,,,,,,,,,,,,,,,,,,,,,,,,,,,,,,,,,,,,,,,,,,,,,,,,901.8157143999997,901.8381617999985,901.8381617999985,907.5645246000204,3.0,5.724749000015436,,,,,TS,001,2024-11-22_12h14.33.556,Disgust Thang,2024.1.5,None,2024-11-22 12h14.53.671147 +0530,
,,,,,,,6,"Persons receiving the death penalty should be limited in their number of appeals, and the death sentence should be carried out in a shorter time period than it is now.",,,,,,,,,,,,,,,,,0,5,5,5,907.5858371000213,,,,,,,,,,,,,,,,,,,,,,,,,,,,,,,,,,,,,,,,,,,,,,,,,,,,,,,907.5647661000257,907.5858371000213,907.5858371000213,916.946889200015,2.0,9.358321400010027,,,,,TS,001,2024-11-22_12h14.33.556,Disgust Thang,2024.1.5,None,2024-11-22 12h14.53.671147 +0530,
,,,,,,,7,The government should reverse its decision on abortion and make it more challenging to have an abortion except in special cases such as rape and incest. ,,,,,,,,,,,,,,,,,0,6,6,6,916.9691629000008,,,,,,,,,,,,,,,,,,,,,,,,,,,,,,,,,,,,,,,,,,,,,,,,,,,,,,,916.9471214000077,916.9691629000008,916.9691629000008,921.246143700002,5.0,4.274500200001057,,,,,TS,001,2024-11-22_12h14.33.556,Disgust Thang,2024.1.5,None,2024-11-22 12h14.53.671147 +0530,
,,,,,,,8,India should require one year of military service for all able-bodied people.,,,,,,,,,,,,,,,,,0,7,7,7,921.26624550001,,,,,,,,,,,,,,,,,,,,,,,,,,,,,,,,,,,,,,,,,,,,,,,,,,,,,,,921.246363400016,921.26624550001,921.26624550001,926.3955578000168,4.0,5.126562099991133,,,,,TS,001,2024-11-22_12h14.33.556,Disgust Thang,2024.1.5,None,2024-11-22 12h14.53.671147 +0530,
,,,,,,,9,"Parents should be able to send their children to any school they choose, and tax money should be used to support the schools that parents choose.",,,,,,,,,,,,,,,,,0,8,8,8,926.4166084000026,,,,,,,,,,,,,,,,,,,,,,,,,,,,,,,,,,,,,,,,,,,,,,,,,,,,,,,926.3957921000256,926.4166084000026,926.4166084000026,941.9936396999983,2.0,15.574251299985917,,,,,TS,001,2024-11-22_12h14.33.556,Disgust Thang,2024.1.5,None,2024-11-22 12h14.53.671147 +0530,
,,,,,,,10,Police should be able to confiscate any materials that are deemed to be obscene or pornographic. ,,,,,,,,,,,,,,,,,0,9,9,9,942.0137771000154,,,,,,,,,,,,,,,,,,,,,,,,,,,,,,,,,,,,,,,,,,,,,,,,,,,,,,,941.9938581000024,942.0137771000154,942.0137771000154,948.8595550000027,4.0,6.84322670000256,,,,,TS,001,2024-11-22_12h14.33.556,Disgust Thang,2024.1.5,None,2024-11-22 12h14.53.671147 +0530,
,,,,,,,11,The central government should be required to have a balanced budget that does not spend more than the money that comes in from taxes,,,,,,,,,,,,,,,,,0,10,10,10,948.8806409000244,,,,,,,,,,,,,,,,,,,,,,,,,,,,,,,,,,,,,,,,,,,,,,,,,,,,,,,948.8597705000138,948.8806409000244,948.8806409000244,999.6529724000138,4.0,50.769614599994384,,,,,TS,001,2024-11-22_12h14.33.556,Disgust Thang,2024.1.5,None,2024-11-22 12h14.53.671147 +0530,
,,,,,,,12R, Laws that limit the sale of fireworks and other explosive materials that are not intended for legitimate cultural or religious purposes should be passed.,,,,,,,,,,,,,,,,,0,11,11,11,999.6761796000064,,,,,,,,,,,,,,,,,,,,,,,,,,,,,,,,,,,,,,,,,,,,,,,,,,,,,,,999.6532279000094,999.6761796000064,999.6761796000064,1005.8690155000077,2.0,6.189506100025028,,,,,TS,001,2024-11-22_12h14.33.556,Disgust Thang,2024.1.5,None,2024-11-22 12h14.53.671147 +0530,
,,,,,,,13R,Sex education should be in taught all public schools and all students should be required to take the class unless exempted by parents. ,,,,,,,,,,,,,,,,,0,12,12,12,1005.8902418000216,,,,,,,,,,,,,,,,,,,,,,,,,,,,,,,,,,,,,,,,,,,,,,,,,,,,,,,1005.8692572000145,1005.8902418000216,1005.8902418000216,1014.284243800008,1.0,8.39167300000554,,,,,TS,001,2024-11-22_12h14.33.556,Disgust Thang,2024.1.5,None,2024-11-22 12h14.53.671147 +0530,
,,,,,,,14,Reservation system should be abolished in India. ,,,,,,,,,,,,,,,,,0,13,13,13,1014.3061817000271,,,,,,,,,,,,,,,,,,,,,,,,,,,,,,,,,,,,,,,,,,,,,,,,,,,,,,,1014.2844649000035,1014.3061817000271,1014.3061817000271,1017.8504740000062,5.0,3.5418752999976277,,,,,TS,001,2024-11-22_12h14.33.556,Disgust Thang,2024.1.5,None,2024-11-22 12h14.53.671147 +0530,
,,,,,,,15,"The Prime Minister, without permission from the President, should be able to use the armed forces and call for an emergency in possible combat areas for as long as he/she deems necessary. ",,,,,,,,,,,,,,,,,0,14,14,14,1017.8734307000122,,,,,,,,,,,,,,,,,,,,,,,,,,,,,,,,,,,,,,,,,,,,,,,,,,,,,,,1017.8506916000042,1017.8734307000122,1017.8734307000122,1048.2966461000033,5.0,30.420585799991386,,,,,TS,001,2024-11-22_12h14.33.556,Disgust Thang,2024.1.5,None,2024-11-22 12h14.53.671147 +0530,
,,,,,,,16R,"Laws should be passed to make it legal for public employees such as police, firemen, teachers, and garbage collectors to go on strike. ",,,,,,,,,,,,,,,,,0,15,15,15,1048.3177897999994,,,,,,,,,,,,,,,,,,,,,,,,,,,,,,,,,,,,,,,,,,,,,,,,,,,,,,,1048.2968634999997,1048.3177897999994,1048.3177897999994,1055.6454883000115,2.0,7.325224700005492,,,,,TS,001,2024-11-22_12h14.33.556,Disgust Thang,2024.1.5,None,2024-11-22 12h14.53.671147 +0530,
,,,,,,,17,Public schools should be required to teach the world's creation as written in the Bhagavad Gita in all classes that teach evolution theory.,,,,,,,,,,,,,,,,,0,16,16,16,1055.6685673000175,,,,,,,,,,,,,,,,,,,,,,,,,,,,,,,,,,,,,,,,,,,,,,,,,,,,,,,1055.645709400007,1055.6685673000175,1055.6685673000175,1061.9780100000207,5.0,6.306727699993644,,,,,TS,001,2024-11-22_12h14.33.556,Disgust Thang,2024.1.5,None,2024-11-22 12h14.53.671147 +0530,
,,,,,,,18,"The government should mandate family planning counseling and reversible sterilization for low-income, unmarried women with three or more children. ",,,,,,,,,,,,,,,,,0,17,17,17,1061.9988956000016,,,,,,,,,,,,,,,,,,,,,,,,,,,,,,,,,,,,,,,,,,,,,,,,,,,,,,,1061.9782543000183,1061.9988956000016,1061.9988956000016,1072.3934656000056,4.0,10.391983000008622,,,,,TS,001,2024-11-22_12h14.33.556,Disgust Thang,2024.1.5,None,2024-11-22 12h14.53.671147 +0530,
,,,,,,,19R,"Birth control information, non-prescription contraceptive devices, and the morning-after pill should be made available on college campuses.",,,,,,,,,,,,,,,,,0,18,18,18,1072.4149522000225,,,,,,,,,,,,,,,,,,,,,,,,,,,,,,,,,,,,,,,,,,,,,,,,,,,,,,,1072.3936844000127,1072.4149522000225,1072.4149522000225,1079.9261281000217,1.0,7.508294200000819,,,,,TS,001,2024-11-22_12h14.33.556,Disgust Thang,2024.1.5,None,2024-11-22 12h14.53.671147 +0530,
,,,,,,,20,"Evidence gathered by the police, even if an honest mistake was made in getting a warrant, should be used to help prosecute suspected criminals. ",,,,,,,,,,,,,,,,,0,19,19,19,1079.9477496000181,,,,,,,,,,,,,,,,,,,,,,,,,,,,,,,,,,,,,,,,,,,,,,,,,,,,,,,1079.9263483000104,1079.9477496000181,1079.9477496000181,1088.4911973999988,4.0,8.541260700003477,,,,,TS,001,2024-11-22_12h14.33.556,Disgust Thang,2024.1.5,None,2024-11-22 12h14.53.671147 +0530,
,,,,,,,21,Inter-religious marriages should be abolished.,,,,,,,,,,,,,,,,,0,20,20,20,1088.509873700008,,,,,,,,,,,,,,,,,,,,,,,,,,,,,,,,,,,,,,,,,,,,,,,,,,,,,,,1088.491416200006,1088.509873700008,1088.509873700008,1092.6906307000027,5.0,4.17806110001402,,,,,TS,001,2024-11-22_12h14.33.556,Disgust Thang,2024.1.5,None,2024-11-22 12h14.53.671147 +0530,
,,,,,,,22R,"Requirements for any military duty, including combat, should be based on physical, emotional, and intellectual abilities, not gender or sexual orientation.",,,,,,,,,,,,,,,,,0,21,21,21,1092.711718400009,,,,,,,,,,,,,,,,,,,,,,,,,,,,,,,,,,,,,,,,,,,,,,,,,,,,,,,1092.6908464000153,1092.711718400009,1092.711718400009,1096.257286500011,1.0,3.5429380999994464,,,,,TS,001,2024-11-22_12h14.33.556,Disgust Thang,2024.1.5,None,2024-11-22 12h14.53.671147 +0530,
,,,,,,,23R,The law should make private employers hire minorities if they are qualified because they have been victims of discrimination in the past. ,,,,,,,,,,,,,,,,,0,22,22,22,1096.2780149000173,,,,,,,,,,,,,,,,,,,,,,,,,,,,,,,,,,,,,,,,,,,,,,,,,,,,,,,1096.2575053000182,1096.2780149000173,1096.2780149000173,1109.93870530001,2.0,13.657927199994447,,,,,TS,001,2024-11-22_12h14.33.556,Disgust Thang,2024.1.5,None,2024-11-22 12h14.53.671147 +0530,
,,,,,,,24,Certain literature should be banned from city libraries if the librarian feels it is improper or too controversial.,,,,,,,,,,,,,,,,,0,23,23,23,1109.9594981000118,,,,,,,,,,,,,,,,,,,,,,,,,,,,,,,,,,,,,,,,,,,,,,,,,,,,,,,1109.9389270000102,1109.9594981000118,1109.9594981000118,1114.2549200000067,5.0,4.292759900010424,,,,,TS,001,2024-11-22_12h14.33.556,Disgust Thang,2024.1.5,None,2024-11-22 12h14.53.671147 +0530,
,,,,,,,25R,The government should interfere during conversion from one religion to another.,,,,,,,,,,,,,,,,,0,24,24,24,1114.2744789000135,,,,,,,,,,,,,,,,,,,,,,,,,,,,,,,,,,,,,,,,,,,,,,,,,,,,,,,1114.2551352000155,1114.2744789000135,1114.2744789000135,1118.7208998000133,5.0,4.443551999982446,,,,,TS,001,2024-11-22_12h14.33.556,Disgust Thang,2024.1.5,None,2024-11-22 12h14.53.671147 +0530,
,,,,,,,26R,The government should spend less on the military and more on education and the environment.,,,,,,,,,,,,,,,,,0,25,25,25,1118.7407617999997,,,,,,,,,,,,,,,,,,,,,,,,,,,,,,,,,,,,,,,,,,,,,,,,,,,,,,,1118.7211170000082,1118.7407617999997,1118.7407617999997,1123.803690700006,3.0,5.06014309998136,,,,,TS,001,2024-11-22_12h14.33.556,Disgust Thang,2024.1.5,None,2024-11-22 12h14.53.671147 +0530,
,,,,,,,27R,India should not trade with or help any nation that violates human rights.,,,,,,,,,,,,,,,,,0,26,26,26,1123.8232062000025,,,,,,,,,,,,,,,,,,,,,,,,,,,,,,,,,,,,,,,,,,,,,,,,,,,,,,,1123.8039078000002,1123.8232062000025,1123.8232062000025,1130.2527653000143,2.0,6.426612600014778,,,,,TS,001,2024-11-22_12h14.33.556,Disgust Thang,2024.1.5,None,2024-11-22 12h14.53.671147 +0530,
,,,,,,,28,People planning to get married should have a mandatory test for STDs such as AIDS and gonorrhea before a marriage certificate can be issued. ,,,,,,,,,,,,,,,,,0,27,27,27,1130.2748801000125,,,,,,,,,,,,,,,,,,,,,,,,,,,,,,,,,,,,,,,,,,,,,,,,,,,,,,,1130.252984700026,1130.2748801000125,1130.2748801000125,1148.0173058000219,1.0,17.73922260000836,,,,,TS,001,2024-11-22_12h14.33.556,Disgust Thang,2024.1.5,None,2024-11-22 12h14.53.671147 +0530,
,,,,,,,29,"There are too many lawsuits in the courts, and the courts do not have the time to deal with more severe issues. ",,,,,,,,,,,,,,,,,0,28,28,28,1148.0375168000173,,,,,,,,,,,,,,,,,,,,,,,,,,,,,,,,,,,,,,,,,,,,,,,,,,,,,,,1148.0175330000056,1148.0375168000173,1148.0375168000173,1163.8651079000265,2.0,15.824826299998676,,,,,TS,001,2024-11-22_12h14.33.556,Disgust Thang,2024.1.5,None,2024-11-22 12h14.53.671147 +0530,
,,,,,,,30R,Nuclear power and nuclear-generating stations should be banned. ,,,,,,,,,,,,,,,,,0,29,29,29,1163.8860966000066,,,,,,,,,,,,,,,,,,,,,,,,,,,,,,,,,,,,,,,,,,,,,,,,,,,,,,,1163.8653343000042,1163.8860966000066,1163.8860966000066,1171.4975539000006,5.0,7.608910700015258,,,,,TS,001,2024-11-22_12h14.33.556,Disgust Thang,2024.1.5,None,2024-11-22 12h14.53.671147 +0530,
,,,,,,,31R,The death penalty is clearly a form of cruel and unusual punishment and should be banned. ,,,,,,,,,,,,,,,,,0,30,30,30,1171.5175502000202,,,,,,,,,,,,,,,,,,,,,,,,,,,,,,,,,,,,,,,,,,,,,,,,,,,,,,,1171.4977731000108,1171.5175502000202,1171.5175502000202,1175.9470710000023,4.0,4.4266902999952435,,,,,TS,001,2024-11-22_12h14.33.556,Disgust Thang,2024.1.5,None,2024-11-22 12h14.53.671147 +0530,
,,,,,,,32R,Sexual harassment of women in the workplace is a serious problem and should be prosecuted under law,,,,,,,,,,,,,,,,,0,31,31,31,1175.9677859000221,,,,,,,,,,,,,,,,,,,,,,,,,,,,,,,,,,,,,,,,,,,,,,,,,,,,,,,1175.9472865000134,1175.9677859000221,1175.9677859000221,1191.3116223000106,2.0,15.342190099996515,,,,,TS,001,2024-11-22_12h14.33.556,Disgust Thang,2024.1.5,None,2024-11-22 12h14.53.671147 +0530,
,,,,,,,33R,"The primary function of prisons should be to rehabilitate criminals, not to punish them. ",,,,,,,,,,,,,,,,,0,32,32,32,1191.3314659000025,,,,,,,,,,,,,,,,,,,,,,,,,,,,,,,,,,,,,,,,,,,,,,,,,,,,,,,1191.3118409000163,1191.3314659000025,1191.3314659000025,1195.9610700000194,2.0,4.626806099986425,,,,,TS,001,2024-11-22_12h14.33.556,Disgust Thang,2024.1.5,None,2024-11-22 12h14.53.671147 +0530,
,,,,,,,34R,The states should abolish criminal penalties for victimless crimes such as gambling and prostitution. ,,,,,,,,,,,,,,,,,0,33,33,33,1195.9814498000196,,,,,,,,,,,,,,,,,,,,,,,,,,,,,,,,,,,,,,,,,,,,,,,,,,,,,,,1195.9612904000096,1195.9814498000196,1195.9814498000196,1200.1771507000085,2.0,4.1932509999896865,,,,,TS,001,2024-11-22_12h14.33.556,Disgust Thang,2024.1.5,None,2024-11-22 12h14.53.671147 +0530,
,,,,,,,35,The CBI should be able to wiretap the phones and read the mail of suspected individuals.,,,,,,,,,,,,,,,,,0,34,34,34,1200.19763900002,,,,,,,,,,,,,,,,,,,,,,,,,,,,,,,,,,,,,,,,,,,,,,,,,,,,,,,1200.1773734000162,1200.19763900002,1200.19763900002,1203.960188500001,4.0,3.7598002000013366,,,,,TS,001,2024-11-22_12h14.33.556,Disgust Thang,2024.1.5,None,2024-11-22 12h14.53.671147 +0530,
,,,,,,,36R,"The central government must take strong steps to reverse global warming, even if it means losing some jobs. ",,,,,,,,,,,,,,,,,0,35,35,35,1203.980172600015,,,,,,,,,,,,,,,,,,,,,,,,,,,,,,,,,,,,,,,,,,,,,,,,,,,,,,,1203.9604135000263,1203.980172600015,1203.980172600015,1227.5902275000117,2.0,23.607118800020544,,,,,TS,001,2024-11-22_12h14.33.556,Disgust Thang,2024.1.5,None,2024-11-22 12h14.53.671147 +0530,
,,,,,,,37,Most youth who fall under the reservation scheme today are lazy and do not want to work.,,,,,,,,,,,,,,,,,0,36,36,36,1227.6105054000218,,,,,,,,,,,,,,,,,,,,,,,,,,,,,,,,,,,,,,,,,,,,,,,,,,,,,,,1227.5904490000103,1227.6105054000218,1227.6105054000218,1241.9718630000134,4.0,14.358795400010422,,,,,TS,001,2024-11-22_12h14.33.556,Disgust Thang,2024.1.5,None,2024-11-22 12h14.53.671147 +0530,
,,,,,,,38,Profanity and sexually oriented material on television should be stopped or penalized by the government. ,,,,,,,,,,,,,,,,,0,37,37,37,1241.9922548000177,,,,,,,,,,,,,,,,,,,,,,,,,,,,,,,,,,,,,,,,,,,,,,,,,,,,,,,1241.9720805000106,1241.9922548000177,1241.9922548000177,1267.1186392000236,4.0,25.123542400018778,,,,,TS,001,2024-11-22_12h14.33.556,Disgust Thang,2024.1.5,None,2024-11-22 12h14.53.671147 +0530,
,,,,,,,39,"The government must stop the flow of immigrants, both legal and illegal, from Bangladesh.",,,,,,,,,,,,,,,,,0,38,38,38,1267.1387729000126,,,,,,,,,,,,,,,,,,,,,,,,,,,,,,,,,,,,,,,,,,,,,,,,,,,,,,,1267.1188568000216,1267.1387729000126,1267.1387729000126,1274.5843105000095,3.0,7.442499700002372,,,,,TS,001,2024-11-22_12h14.33.556,Disgust Thang,2024.1.5,None,2024-11-22 12h14.53.671147 +0530,
,,,,,,,40R,There should be sensitization classes for individuals in the LGBTQ+ community in school.,,,,,,,,,,,,,,,,,0,39,39,39,1274.6059810000006,,,,,,,,,,,,,,,,,,,,,,,,,,,,,,,,,,,,,,,,,,,,,,,,,,,,,,,1274.5845281000074,1274.6059810000006,1274.6059810000006,1280.533528400003,1.0,5.9249208999972325,,,,,TS,001,2024-11-22_12h14.33.556,Disgust Thang,2024.1.5,None,2024-11-22 12h14.53.671147 +0530,
,,,,,,,,,,,,,,,,,,,,,,,,,,,,,,,,,,,,,,,,,,,,,,,,,,,,,,,,,,,,,,,,,,,,,,,,,,,,,,,,,,,,,,,,,,1280.5336827000137,1280.5479588000162,1290.5464252000093,1290.5308516000223,TS,001,2024-11-22_12h14.33.556,Disgust Thang,2024.1.5,None,2024-11-22 12h14.53.671147 +0530,
