dsr1_no,dsr1,dsr2_no,dsr_e,math_q,correct_resp,image_disgust,no,pol_ques,trials_4.thisRepN,trials_4.thisTrialN,trials_4.thisN,trials_4.thisIndex,trials_5.thisRepN,trials_5.thisTrialN,trials_5.thisN,trials_5.thisIndex,trials_3.thisRepN,trials_3.thisTrialN,trials_3.thisN,trials_3.thisIndex,trials.thisRepN,trials.thisTrialN,trials.thisN,trials.thisIndex,trials_2.thisRepN,trials_2.thisTrialN,trials_2.thisN,trials_2.thisIndex,thisRow.t,notes,consent_form.started,text_10.started,button_2.started,consent_form.stopped,button_2.numClicks,button_2.timesOn,button_2.timesOff,Introduction.started,text_3.started,button.started,Introduction.stopped,button.numClicks,button.timesOn,button.timesOff,dsr_a.started,text_6.started,text_7.started,slider_3.started,dsr_a.stopped,slider_3.response,slider_3.rt,dsr_b.started,text_8.started,text_9.started,slider_4.started,dsr_b.stopped,slider_4.response,slider_4.rt,distractor.started,text.started,textbox.started,buton.started,distractor.stopped,textbox.text,buton.numClicks,buton.timesOn,buton.timesOff,encoding.started,polygon.started,image.started,polygon.stopped,slider.started,image.stopped,encoding.stopped,slider.response,slider.rt,instruction.started,text_4.started,Button.started,instruction.stopped,Button.numClicks,Button.timesOn,Button.timesOff,testing.started,text_2.started,slider_2.started,testing.stopped,slider_2.response,slider_2.rt,exit_message.started,text_5.started,text_5.stopped,exit_message.stopped,participant,session,date,expName,psychopyVersion,frameRate,expStart,
,,,,,,,,,,,,,,,,,,,,,,,,,,,,,,,0.004600499989464879,0.013466000003973022,0.013466000003973022,39.16213620000053,1,[39.15624129999196],[39.15624939999543],,,,,,,,,,,,,,,,,,,,,,,,,,,,,,,,,,,,,,,,,,,,,,,,,,,,,,,,,VN,001,2024-11-22_17h38.56.755,Disgust Thang,2024.1.5,None,2024-11-22 17h39.17.262399 +0530,
,,,,,,,,,,,,,,,,,,,,,,,,,,,,,,,,,,,,,,39.16222679999191,39.17742179997731,39.17742179997731,49.460736399982125,1,[10.297147799981758],[10.297155099979136],,,,,,,,,,,,,,,,,,,,,,,,,,,,,,,,,,,,,,,,,,,,,,,,,,VN,001,2024-11-22_17h38.56.755,Disgust Thang,2024.1.5,None,2024-11-22 17h39.17.262399 +0530,
1r,"I might be willing to try eating monkey meat, under some circumstances",,,,,,,,0,0,0,0,,,,,,,,,,,,,,,,,49.532724099990446,,,,,,,,,,,,,,,,49.467513399984455,49.532724099990446,49.532724099990446,49.532724099990446,49.70616109998082,2.0,0.21036500000627711,,,,,,,,,,,,,,,,,,,,,,,,,,,,,,,,,,,,,,,,,,,VN,001,2024-11-22_17h38.56.755,Disgust Thang,2024.1.5,None,2024-11-22 17h39.17.262399 +0530,
2,"It would bother me to be in a science class, and to see a human hand preserved in a jar",,,,,,,,0,1,1,1,,,,,,,,,,,,,,,,,49.733943200000795,,,,,,,,,,,,,,,,49.70655499998247,49.733943200000795,49.733943200000795,49.733943200000795,61.50820660000318,0.0,11.775031400000444,,,,,,,,,,,,,,,,,,,,,,,,,,,,,,,,,,,,,,,,,,,VN,001,2024-11-22_17h38.56.755,Disgust Thang,2024.1.5,None,2024-11-22 17h39.17.262399 +0530,
3,It bothers me to hear someone clear a throat full of mucous,,,,,,,,0,2,2,2,,,,,,,,,,,,,,,,,61.53277039999375,,,,,,,,,,,,,,,,61.50849809998181,61.53277039999375,61.53277039999375,61.53277039999375,66.22815879998961,2.0,4.695826400013175,,,,,,,,,,,,,,,,,,,,,,,,,,,,,,,,,,,,,,,,,,,VN,001,2024-11-22_17h38.56.755,Disgust Thang,2024.1.5,None,2024-11-22 17h39.17.262399 +0530,
4,I never let any part of my body touch the toilet seat in public restrooms. ,,,,,,,,0,3,3,3,,,,,,,,,,,,,,,,,66.25341169998865,,,,,,,,,,,,,,,,66.22841619999963,66.25341169998865,66.25341169998865,66.25341169998865,73.34244639999815,1.0,7.0897468000184745,,,,,,,,,,,,,,,,,,,,,,,,,,,,,,,,,,,,,,,,,,,VN,001,2024-11-22_17h38.56.755,Disgust Thang,2024.1.5,None,2024-11-22 17h39.17.262399 +0530,
5,I would go out of my way to avoid walking through a graveyard. ,,,,,,,,0,4,4,4,,,,,,,,,,,,,,,,,73.36725509999087,,,,,,,,,,,,,,,,73.3427080999827,73.36725509999087,73.36725509999087,73.36725509999087,84.15742879998288,3.0,10.79059600000619,,,,,,,,,,,,,,,,,,,,,,,,,,,,,,,,,,,,,,,,,,,VN,001,2024-11-22_17h38.56.755,Disgust Thang,2024.1.5,None,2024-11-22 17h39.17.262399 +0530,
6r,Seeing a cockroach in someone else's house doesn't bother me. ,,,,,,,,0,5,5,5,,,,,,,,,,,,,,,,,84.18463559998781,,,,,,,,,,,,,,,,84.15776269999333,84.18463559998781,84.18463559998781,84.18463559998781,90.41347219998715,3.0,6.228861200012034,,,,,,,,,,,,,,,,,,,,,,,,,,,,,,,,,,,,,,,,,,,VN,001,2024-11-22_17h38.56.755,Disgust Thang,2024.1.5,None,2024-11-22 17h39.17.262399 +0530,
7,It would bother me tremendously to touch a dead body. ,,,,,,,,0,6,6,6,,,,,,,,,,,,,,,,,90.43823169998359,,,,,,,,,,,,,,,,90.41376080000191,90.43823169998359,90.43823169998359,90.43823169998359,103.23960709999665,4.0,12.801774099993054,,,,,,,,,,,,,,,,,,,,,,,,,,,,,,,,,,,,,,,,,,,VN,001,2024-11-22_17h38.56.755,Disgust Thang,2024.1.5,None,2024-11-22 17h39.17.262399 +0530,
8,"If I see someone vomit, it makes me sick to my stomach. ",,,,,,,,0,7,7,7,,,,,,,,,,,,,,,,,103.26775579998503,,,,,,,,,,,,,,,,103.2398767999839,103.26775579998503,103.26775579998503,103.26775579998503,108.23170919998665,4.0,4.968028600007528,,,,,,,,,,,,,,,,,,,,,,,,,,,,,,,,,,,,,,,,,,,VN,001,2024-11-22_17h38.56.755,Disgust Thang,2024.1.5,None,2024-11-22 17h39.17.262399 +0530,
9,I probably would not go to my favorite restaurant if I found out that the cook had a cold. ,,,,,,,,0,8,8,8,,,,,,,,,,,,,,,,,108.25698569999076,,,,,,,,,,,,,,,,108.23200930000166,108.25698569999076,108.25698569999076,108.25698569999076,114.83535720000509,2.0,6.578959999984363,,,,,,,,,,,,,,,,,,,,,,,,,,,,,,,,,,,,,,,,,,,VN,001,2024-11-22_17h38.56.755,Disgust Thang,2024.1.5,None,2024-11-22 17h39.17.262399 +0530,
10r,"It would not upset me at all to watch a person with a glass eye take the eye 
out of the socket.  ",,,,,,,,0,9,9,9,,,,,,,,,,,,,,,,,114.86214409998502,,,,,,,,,,,,,,,,114.83562569998321,114.86214409998502,114.86214409998502,114.86214409998502,129.21547259998624,0.0,14.35359100002097,,,,,,,,,,,,,,,,,,,,,,,,,,,,,,,,,,,,,,,,,,,VN,001,2024-11-22_17h38.56.755,Disgust Thang,2024.1.5,None,2024-11-22 17h39.17.262399 +0530,
11,It would bother me to see a rat run across my path in a park. ,,,,,,,,0,10,10,10,,,,,,,,,,,,,,,,,129.2404561000003,,,,,,,,,,,,,,,,129.21579089999432,129.2404561000003,129.2404561000003,129.2404561000003,137.42127560000517,1.0,8.181361700000707,,,,,,,,,,,,,,,,,,,,,,,,,,,,,,,,,,,,,,,,,,,VN,001,2024-11-22_17h38.56.755,Disgust Thang,2024.1.5,None,2024-11-22 17h39.17.262399 +0530,
12d,I would rather eat a piece of fruit than a piece of paper ,,,,,,,,0,11,11,11,,,,,,,,,,,,,,,,,137.44661009998526,,,,,,,,,,,,,,,,137.4215661000053,137.44661009998526,137.44661009998526,137.44661009998526,142.264840799995,4.0,4.818484000017634,,,,,,,,,,,,,,,,,,,,,,,,,,,,,,,,,,,,,,,,,,,VN,001,2024-11-22_17h38.56.755,Disgust Thang,2024.1.5,None,2024-11-22 17h39.17.262399 +0530,
13,"Even if I was hungry, I would not drink a bowl of my favorite soup if it had been
stirred by a used but thoroughly washed flyswatter. ",,,,,,,,0,12,12,12,,,,,,,,,,,,,,,,,142.29373139998643,,,,,,,,,,,,,,,,142.2651530999865,142.29373139998643,142.29373139998643,142.29373139998643,155.46195019999868,4.0,13.169372899981681,,,,,,,,,,,,,,,,,,,,,,,,,,,,,,,,,,,,,,,,,,,VN,001,2024-11-22_17h38.56.755,Disgust Thang,2024.1.5,None,2024-11-22 17h39.17.262399 +0530,
14,"It would bother me to sleep in a nice hotel room if I knew that a man had died of a
heart attack in that room the night before. ",,,,,,,,0,13,13,13,,,,,,,,,,,,,,,,,155.4879440999939,,,,,,,,,,,,,,,,155.46221339999465,155.4879440999939,155.4879440999939,155.4879440999939,163.67495250000502,4.0,8.187638399977004,,,,,,,,,,,,,,,,,,,,,,,,,,,,,,,,,,,,,,,,,,,VN,001,2024-11-22_17h38.56.755,Disgust Thang,2024.1.5,None,2024-11-22 17h39.17.262399 +0530,
,,15,You see maggots on a piece of meat in an outdoor garbage pail. ,,,,,,,,,,0,0,0,0,,,,,,,,,,,,,163.7073720000044,,,,,,,,,,,,,,,,,,,,,,,163.68049070000416,163.7073720000044,163.7073720000044,163.7073720000044,171.8208221999812,4.0,8.116579800000181,,,,,,,,,,,,,,,,,,,,,,,,,,,,,,,,,,,,VN,001,2024-11-22_17h38.56.755,Disgust Thang,2024.1.5,None,2024-11-22 17h39.17.262399 +0530,
,,16d,You see a person eating an apple with a knife and fork,,,,,,,,,,0,1,1,1,,,,,,,,,,,,,171.84623229998397,,,,,,,,,,,,,,,,,,,,,,,171.82116120000137,171.84623229998397,171.84623229998397,171.84623229998397,177.1305700999801,0.0,5.284591300005559,,,,,,,,,,,,,,,,,,,,,,,,,,,,,,,,,,,,VN,001,2024-11-22_17h38.56.755,Disgust Thang,2024.1.5,None,2024-11-22 17h39.17.262399 +0530,
,,17,"While you are walking through a tunnel under a railroad track, you smell urine. ",,,,,,,,,,0,2,2,2,,,,,,,,,,,,,177.1585368999804,,,,,,,,,,,,,,,,,,,,,,,177.13083409998217,177.1585368999804,177.1585368999804,177.1585368999804,182.69928579998668,3.0,5.54180790000828,,,,,,,,,,,,,,,,,,,,,,,,,,,,,,,,,,,,VN,001,2024-11-22_17h38.56.755,Disgust Thang,2024.1.5,None,2024-11-22 17h39.17.262399 +0530,
,,18,"You take a sip of soda, and then realize that you drank from the glass that an
 		acquaintance of yours had been drinking from",,,,,,,,,,0,3,3,3,,,,,,,,,,,,,182.72814709998784,,,,,,,,,,,,,,,,,,,,,,,182.69955930000287,182.72814709998784,182.72814709998784,182.72814709998784,191.4483970000001,1.0,8.718373500014422,,,,,,,,,,,,,,,,,,,,,,,,,,,,,,,,,,,,VN,001,2024-11-22_17h38.56.755,Disgust Thang,2024.1.5,None,2024-11-22 17h39.17.262399 +0530,
,,19,"Your friend's pet cat dies, and you have to pick up the dead body with your bare hands.  ",,,,,,,,,,0,4,4,4,,,,,,,,,,,,,191.47402379999403,,,,,,,,,,,,,,,,,,,,,,,191.4486559999932,191.47402379999403,191.47402379999403,191.47402379999403,197.61787709998316,3.0,6.143865099991672,,,,,,,,,,,,,,,,,,,,,,,,,,,,,,,,,,,,VN,001,2024-11-22_17h38.56.755,Disgust Thang,2024.1.5,None,2024-11-22 17h39.17.262399 +0530,
,,20,"You see someone put ketchup on vanilla ice cream, and eat it. ",,,,,,,,,,0,5,5,5,,,,,,,,,,,,,197.6433044000005,,,,,,,,,,,,,,,,,,,,,,,197.618175599986,197.6433044000005,197.6433044000005,197.6433044000005,203.50842379999813,0.0,5.866804199991748,,,,,,,,,,,,,,,,,,,,,,,,,,,,,,,,,,,,VN,001,2024-11-22_17h38.56.755,Disgust Thang,2024.1.5,None,2024-11-22 17h39.17.262399 +0530,
,,21,You see a man with his intestines exposed after an accident. ,,,,,,,,,,0,6,6,6,,,,,,,,,,,,,203.53300110000418,,,,,,,,,,,,,,,,,,,,,,,203.50867989999824,203.53300110000418,203.53300110000418,203.53300110000418,208.90893330000108,4.0,5.376699600019492,,,,,,,,,,,,,,,,,,,,,,,,,,,,,,,,,,,,VN,001,2024-11-22_17h38.56.755,Disgust Thang,2024.1.5,None,2024-11-22 17h39.17.262399 +0530,
,,22,You discover that a friend of yours changes underwear only once a week. ,,,,,,,,,,0,7,7,7,,,,,,,,,,,,,208.93418169999495,,,,,,,,,,,,,,,,,,,,,,,208.90923849999672,208.93418169999495,208.93418169999495,208.93418169999495,214.41072869999334,4.0,5.476774900016608,,,,,,,,,,,,,,,,,,,,,,,,,,,,,,,,,,,,VN,001,2024-11-22_17h38.56.755,Disgust Thang,2024.1.5,None,2024-11-22 17h39.17.262399 +0530,
,,23,A friend offers you a piece of chocolate shaped like dog doo. ,,,,,,,,,,0,8,8,8,,,,,,,,,,,,,214.43770759998006,,,,,,,,,,,,,,,,,,,,,,,214.41099449998,214.43770759998006,214.43770759998006,214.43770759998006,220.10903249998228,0.0,5.671392999996897,,,,,,,,,,,,,,,,,,,,,,,,,,,,,,,,,,,,VN,001,2024-11-22_17h38.56.755,Disgust Thang,2024.1.5,None,2024-11-22 17h39.17.262399 +0530,
,,24,You accidentally touch the ashes of a person who has been cremated. ,,,,,,,,,,0,9,9,9,,,,,,,,,,,,,220.13497679997818,,,,,,,,,,,,,,,,,,,,,,,220.10930709997774,220.13497679997818,220.13497679997818,220.13497679997818,223.9384199999913,3.0,3.804381800000556,,,,,,,,,,,,,,,,,,,,,,,,,,,,,,,,,,,,VN,001,2024-11-22_17h38.56.755,Disgust Thang,2024.1.5,None,2024-11-22 17h39.17.262399 +0530,
,,25,You are about to drink a glass of milk when you smell that it is spoiled. ,,,,,,,,,,0,10,10,10,,,,,,,,,,,,,223.96525449998444,,,,,,,,,,,,,,,,,,,,,,,223.9387022999872,223.96525449998444,223.96525449998444,223.96525449998444,230.96870870000566,2.0,7.005354299995815,,,,,,,,,,,,,,,,,,,,,,,,,,,,,,,,,,,,VN,001,2024-11-22_17h38.56.755,Disgust Thang,2024.1.5,None,2024-11-22 17h39.17.262399 +0530,
,,26,"As part of a sex education class, you are required to inflate a new unlubricated
		condom, using your mouth. ",,,,,,,,,,0,11,11,11,,,,,,,,,,,,,230.99453789999825,,,,,,,,,,,,,,,,,,,,,,,230.96897359998547,230.99453789999825,230.99453789999825,230.99453789999825,243.6340649999911,0.0,12.640104099991731,,,,,,,,,,,,,,,,,,,,,,,,,,,,,,,,,,,,VN,001,2024-11-22_17h38.56.755,Disgust Thang,2024.1.5,None,2024-11-22 17h39.17.262399 +0530,
,,27,"You are walking barefoot on concrete, and you step on an earthworm. ",,,,,,,,,,0,12,12,12,,,,,,,,,,,,,243.65913439998985,,,,,,,,,,,,,,,,,,,,,,,243.63433129998157,243.65913439998985,243.65913439998985,243.65913439998985,251.2160069999809,4.0,7.55792280001333,,,,,,,,,,,,,,,,,,,,,,,,,,,,,,,,,,,,VN,001,2024-11-22_17h38.56.755,Disgust Thang,2024.1.5,None,2024-11-22 17h39.17.262399 +0530,
,,,,15-7,8,,,,,,,,,,,,0,0,0,0,,,,,,,,,251.24553990000277,,,,,,,,,,,,,,,,,,,,,,,,,,,,,,251.22074590000557,251.24553990000277,251.24553990000277,251.24553990000277,259.30016019998584,8,1,[8.07341060001636],[8.073418699990725],,,,,,,,,,,,,,,,,,,,,,,,,,,VN,001,2024-11-22_17h38.56.755,Disgust Thang,2024.1.5,None,2024-11-22 17h39.17.262399 +0530,
,,,,5*7,35,,,,,,,,,,,,0,1,1,1,,,,,,,,,259.3192206999811,,,,,,,,,,,,,,,,,,,,,,,,,,,,,,259.3008848000027,259.3192206999811,259.3192206999811,259.3192206999811,265.6494468000019,35,1,[6.343801099981647],[6.3438095999881625],,,,,,,,,,,,,,,,,,,,,,,,,,,VN,001,2024-11-22_17h38.56.755,Disgust Thang,2024.1.5,None,2024-11-22 17h39.17.262399 +0530,
,,,,42/7,6,,,,,,,,,,,,0,2,2,2,,,,,,,,,265.666502499982,,,,,,,,,,,,,,,,,,,,,,,,,,,,,,265.6498980000033,265.666502499982,265.666502499982,265.666502499982,269.6323061999865,6,1,[3.9763301000057254],[3.976338800013764],,,,,,,,,,,,,,,,,,,,,,,,,,,VN,001,2024-11-22_17h38.56.755,Disgust Thang,2024.1.5,None,2024-11-22 17h39.17.262399 +0530,
,,,,51-17,34,,,,,,,,,,,,0,3,3,3,,,,,,,,,269.64757609998924,,,,,,,,,,,,,,,,,,,,,,,,,,,,,,269.6328367999813,269.64757609998924,269.64757609998924,269.64757609998924,280.4969921000011,34,1,[10.861218800011557],[10.86123320000479],,,,,,,,,,,,,,,,,,,,,,,,,,,VN,001,2024-11-22_17h38.56.755,Disgust Thang,2024.1.5,None,2024-11-22 17h39.17.262399 +0530,
,,,,19*8,152,,,,,,,,,,,,0,4,4,4,,,,,,,,,280.5136896999902,,,,,,,,,,,,,,,,,,,,,,,,,,,,,,280.49744109998574,280.5136896999902,280.5136896999902,280.5136896999902,287.99660069998936,162,1,[7.4932856999803334],[7.493294199986849],,,,,,,,,,,,,,,,,,,,,,,,,,,VN,001,2024-11-22_17h38.56.755,Disgust Thang,2024.1.5,None,2024-11-22 17h39.17.262399 +0530,
,,,,6* (25+3),168,,,,,,,,,,,,0,5,5,5,,,,,,,,,288.0142663999868,,,,,,,,,,,,,,,,,,,,,,,,,,,,,,287.99712279997766,288.0142663999868,288.0142663999868,288.0142663999868,314.6932579999848,168,1,[26.689488100004382],[26.689496600010898],,,,,,,,,,,,,,,,,,,,,,,,,,,VN,001,2024-11-22_17h38.56.755,Disgust Thang,2024.1.5,None,2024-11-22 17h39.17.262399 +0530,
,,,,,,images/1034_food.png,,,,,,,,,,,,,,,0,0,0,1,,,,,314.7269710999972,,,,,,,,,,,,,,,,,,,,,,,,,,,,,,,,,,,,,,,314.69835389999207,314.7269710999972,315.72859600000083,315.7344921999902,322.7106101999816,325.74026269998285,326.5772061999887,1.0296296296296297,11.841732000000775,,,,,,,,,,,,,,,,,,VN,001,2024-11-22_17h38.56.755,Disgust Thang,2024.1.5,None,2024-11-22 17h39.17.262399 +0530,
,,,,,,images/1218_death.png,,,,,,,,,,,,,,,0,1,1,7,,,,,326.60606029999326,,,,,,,,,,,,,,,,,,,,,,,,,,,,,,,,,,,,,,,326.5775622999936,326.60606029999326,327.59155349998036,327.6072521999886,334.5889855999849,,337.25948249999783,1,10.643909400008852,,,,,,,,,,,,,,,,,,VN,001,2024-11-22_17h38.56.755,Disgust Thang,2024.1.5,None,2024-11-22 17h39.17.262399 +0530,
,,,,,,images/1110_body products.png,,,,,,,,,,,,,,,0,2,2,2,,,,,337.2904562999902,,,,,,,,,,,,,,,,,,,,,,,,,,,,,,,,,,,,,,,337.2597736000025,337.2904562999902,338.2731203000003,338.2893768999784,345.2746242999856,,347.8156269000028,1.0222222222222221,10.513214100006735,,,,,,,,,,,,,,,,,,VN,001,2024-11-22_17h38.56.755,Disgust Thang,2024.1.5,None,2024-11-22 17h39.17.262399 +0530,
,,,,,,images/1253_hygiene.png,,,,,,,,,,,,,,,0,3,3,8,,,,,347.8520814999938,,,,,,,,,,,,,,,,,,,,,,,,,,,,,,,,,,,,,,,347.81587339998805,347.8520814999938,348.8220727999869,348.8546854000015,355.82160130000557,,357.46421279999777,1.0444444444444445,9.601836800022284,,,,,,,,,,,,,,,,,,VN,001,2024-11-22_17h38.56.755,Disgust Thang,2024.1.5,None,2024-11-22 17h39.17.262399 +0530,
,,,,,,images/1171_injuries_infections.png,,,,,,,,,,,,,,,0,4,4,4,,,,,357.4949751999811,,,,,,,,,,,,,,,,,,,,,,,,,,,,,,,,,,,,,,,357.46446849999484,357.4949751999811,358.47088099998655,358.5033631999977,365.46907920000376,,366.65760969999246,1.0444444444444445,9.153123900003266,,,,,,,,,,,,,,,,,,VN,001,2024-11-22_17h38.56.755,Disgust Thang,2024.1.5,None,2024-11-22 17h39.17.262399 +0530,
,,,,,,images/1033_food.png,,,,,,,,,,,,,,,0,5,5,0,,,,,366.68508490000386,,,,,,,,,,,,,,,,,,,,,,,,,,,,,,,,,,,,,,,366.6578776999959,366.68508490000386,367.669782699988,367.6855952999904,374.66883999999845,,375.5123504999792,1.0444444444444445,8.817382600012934,,,,,,,,,,,,,,,,,,VN,001,2024-11-22_17h38.56.755,Disgust Thang,2024.1.5,None,2024-11-22 17h39.17.262399 +0530,
,,,,,,images/1118_body products.png,,,,,,,,,,,,,,,0,6,6,3,,,,,375.54204759999993,,,,,,,,,,,,,,,,,,,,,,,,,,,,,,,,,,,,,,,375.512602599978,375.54204759999993,376.5186569999787,376.5511760999798,383.5174342999817,,384.4532995999907,1.0444444444444445,8.90141270001186,,,,,,,,,,,,,,,,,,VN,001,2024-11-22_17h38.56.755,Disgust Thang,2024.1.5,None,2024-11-22 17h39.17.262399 +0530,
,,,,,,images/1182_injuries_infections.png,,,,,,,,,,,,,,,0,7,7,5,,,,,384.4810906999919,,,,,,,,,,,,,,,,,,,,,,,,,,,,,,,,,,,,,,,384.4535482999927,384.4810906999919,385.4672433999949,385.4831607999804,392.4660673000035,,393.5470095000055,1.0444444444444445,9.056355400010943,,,,,,,,,,,,,,,,,,VN,001,2024-11-22_17h38.56.755,Disgust Thang,2024.1.5,None,2024-11-22 17h39.17.262399 +0530,
,,,,,,images/1201_death.png,,,,,,,,,,,,,,,0,8,8,6,,,,,393.5834370999946,,,,,,,,,,,,,,,,,,,,,,,,,,,,,,,,,,,,,,,393.54726679998566,393.5834370999946,394.5497317999834,394.5821598999901,401.5472418999998,,402.63857469998766,1.0444444444444445,9.045236700010719,,,,,,,,,,,,,,,,,,VN,001,2024-11-22_17h38.56.755,Disgust Thang,2024.1.5,None,2024-11-22 17h39.17.262399 +0530,
,,,,,,,,,,,,,,,,,,,,,,,,,,,,,,,,,,,,,,,,,,,,,,,,,,,,,,,,,,,,,,,,,,,,,,,,,,,,,402.6387380999804,402.64713569998275,402.64713569998275,410.09825589999673,1,[7.458390800020425],[7.458398799994029],,,,,,,,,,,VN,001,2024-11-22_17h38.56.755,Disgust Thang,2024.1.5,None,2024-11-22 17h39.17.262399 +0530,
,,,,,,,1R,The government should pass a Constitutional amendment that would make it illegal to discriminate against anyone in any situation based on sexual orientation.,,,,,,,,,,,,,,,,,0,0,0,0,410.1412135999999,,,,,,,,,,,,,,,,,,,,,,,,,,,,,,,,,,,,,,,,,,,,,,,,,,,,,,,410.10651179999695,410.1412135999999,410.1412135999999,410.33002160000615,3.0,0.19512180000310764,,,,,VN,001,2024-11-22_17h38.56.755,Disgust Thang,2024.1.5,None,2024-11-22 17h39.17.262399 +0530,
,,,,,,,2R,"The national government should establish a centrally funded medical program so that all persons, regardless of means, have access to medical care.",,,,,,,,,,,,,,,,,0,1,1,1,410.35944840000593,,,,,,,,,,,,,,,,,,,,,,,,,,,,,,,,,,,,,,,,,,,,,,,,,,,,,,,410.3303888999799,410.35944840000593,410.35944840000593,422.79795939999167,5.0,12.440391399984946,,,,,VN,001,2024-11-22_17h38.56.755,Disgust Thang,2024.1.5,None,2024-11-22 17h39.17.262399 +0530,
,,,,,,,3,It should be legal and constitutional to say a prayer at the beginning of assemblies in public schools.,,,,,,,,,,,,,,,,,0,2,2,2,422.82321909998427,,,,,,,,,,,,,,,,,,,,,,,,,,,,,,,,,,,,,,,,,,,,,,,,,,,,,,,422.79827460000524,422.82321909998427,422.82321909998427,432.39107270000386,4.0,9.567717600002652,,,,,VN,001,2024-11-22_17h38.56.755,Disgust Thang,2024.1.5,None,2024-11-22 17h39.17.262399 +0530,
,,,,,,,4R,Persons should be allowed to join and serve in the military regardless of their sexual preference as long as their behavior meets strict military standards.,,,,,,,,,,,,,,,,,0,3,3,3,432.4180381000042,,,,,,,,,,,,,,,,,,,,,,,,,,,,,,,,,,,,,,,,,,,,,,,,,,,,,,,432.3913530999853,432.4180381000042,432.4180381000042,442.1949523999938,1.0,9.777817599999253,,,,,VN,001,2024-11-22_17h38.56.755,Disgust Thang,2024.1.5,None,2024-11-22 17h39.17.262399 +0530,
,,,,,,,5R,A person should be able to use and grow small quantities of marijuana in the privacy of his or her own home with no legal consequences.,,,,,,,,,,,,,,,,,0,4,4,4,442.2205963000015,,,,,,,,,,,,,,,,,,,,,,,,,,,,,,,,,,,,,,,,,,,,,,,,,,,,,,,442.19522619998315,442.2205963000015,442.2205963000015,447.54821119998815,1.0,5.328174199996283,,,,,VN,001,2024-11-22_17h38.56.755,Disgust Thang,2024.1.5,None,2024-11-22 17h39.17.262399 +0530,
,,,,,,,6,"Persons receiving the death penalty should be limited in their number of appeals, and the death sentence should be carried out in a shorter time period than it is now.",,,,,,,,,,,,,,,,,0,5,5,5,447.574143899983,,,,,,,,,,,,,,,,,,,,,,,,,,,,,,,,,,,,,,,,,,,,,,,,,,,,,,,447.548483999999,447.574143899983,447.574143899983,458.2354417000024,3.0,10.660827899992,,,,,VN,001,2024-11-22_17h38.56.755,Disgust Thang,2024.1.5,None,2024-11-22 17h39.17.262399 +0530,
,,,,,,,7,The government should reverse its decision on abortion and make it more challenging to have an abortion except in special cases such as rape and incest. ,,,,,,,,,,,,,,,,,0,6,6,6,458.2628231999988,,,,,,,,,,,,,,,,,,,,,,,,,,,,,,,,,,,,,,,,,,,,,,,,,,,,,,,458.235714999988,458.2628231999988,458.2628231999988,470.7473311999929,5.0,12.485018999985186,,,,,VN,001,2024-11-22_17h38.56.755,Disgust Thang,2024.1.5,None,2024-11-22 17h39.17.262399 +0530,
,,,,,,,8,India should require one year of military service for all able-bodied people.,,,,,,,,,,,,,,,,,0,7,7,7,470.77230229999986,,,,,,,,,,,,,,,,,,,,,,,,,,,,,,,,,,,,,,,,,,,,,,,,,,,,,,,470.74760559998685,470.77230229999986,470.77230229999986,477.2312115999812,4.0,6.458886799984612,,,,,VN,001,2024-11-22_17h38.56.755,Disgust Thang,2024.1.5,None,2024-11-22 17h39.17.262399 +0530,
,,,,,,,9,"Parents should be able to send their children to any school they choose, and tax money should be used to support the schools that parents choose.",,,,,,,,,,,,,,,,,0,8,8,8,477.257970000006,,,,,,,,,,,,,,,,,,,,,,,,,,,,,,,,,,,,,,,,,,,,,,,,,,,,,,,477.2315072999918,477.257970000006,477.257970000006,490.6589851999888,3.0,13.402084700006526,,,,,VN,001,2024-11-22_17h38.56.755,Disgust Thang,2024.1.5,None,2024-11-22 17h39.17.262399 +0530,
,,,,,,,10,Police should be able to confiscate any materials that are deemed to be obscene or pornographic. ,,,,,,,,,,,,,,,,,0,9,9,9,490.6837871999887,,,,,,,,,,,,,,,,,,,,,,,,,,,,,,,,,,,,,,,,,,,,,,,,,,,,,,,490.65926659997785,490.6837871999887,490.6837871999887,495.02712210000027,3.0,4.3436907999857794,,,,,VN,001,2024-11-22_17h38.56.755,Disgust Thang,2024.1.5,None,2024-11-22 17h39.17.262399 +0530,
,,,,,,,11,The central government should be required to have a balanced budget that does not spend more than the money that comes in from taxes,,,,,,,,,,,,,,,,,0,10,10,10,495.0533208999841,,,,,,,,,,,,,,,,,,,,,,,,,,,,,,,,,,,,,,,,,,,,,,,,,,,,,,,495.027394499979,495.0533208999841,495.0533208999841,507.30749639999704,3.0,12.253692400001455,,,,,VN,001,2024-11-22_17h38.56.755,Disgust Thang,2024.1.5,None,2024-11-22 17h39.17.262399 +0530,
,,,,,,,12R, Laws that limit the sale of fireworks and other explosive materials that are not intended for legitimate cultural or religious purposes should be passed.,,,,,,,,,,,,,,,,,0,11,11,11,507.336719599989,,,,,,,,,,,,,,,,,,,,,,,,,,,,,,,,,,,,,,,,,,,,,,,,,,,,,,,507.307776200003,507.336719599989,507.336719599989,516.3265584000037,4.0,8.990489999996498,,,,,VN,001,2024-11-22_17h38.56.755,Disgust Thang,2024.1.5,None,2024-11-22 17h39.17.262399 +0530,
,,,,,,,13R,Sex education should be in taught all public schools and all students should be required to take the class unless exempted by parents. ,,,,,,,,,,,,,,,,,0,12,12,12,516.3525083999848,,,,,,,,,,,,,,,,,,,,,,,,,,,,,,,,,,,,,,,,,,,,,,,,,,,,,,,516.3268382999813,516.3525083999848,516.3525083999848,522.7618411000003,1.0,6.406651500001317,,,,,VN,001,2024-11-22_17h38.56.755,Disgust Thang,2024.1.5,None,2024-11-22 17h39.17.262399 +0530,
,,,,,,,14,Reservation system should be abolished in India. ,,,,,,,,,,,,,,,,,0,13,13,13,522.7905479999899,,,,,,,,,,,,,,,,,,,,,,,,,,,,,,,,,,,,,,,,,,,,,,,,,,,,,,,522.7621509000019,522.7905479999899,522.7905479999899,526.7569272999826,5.0,3.9682252999919,,,,,VN,001,2024-11-22_17h38.56.755,Disgust Thang,2024.1.5,None,2024-11-22 17h39.17.262399 +0530,
,,,,,,,15,"The Prime Minister, without permission from the President, should be able to use the armed forces and call for an emergency in possible combat areas for as long as he/she deems necessary. ",,,,,,,,,,,,,,,,,0,14,14,14,526.7857665999909,,,,,,,,,,,,,,,,,,,,,,,,,,,,,,,,,,,,,,,,,,,,,,,,,,,,,,,526.7572188999911,526.7857665999909,526.7857665999909,532.9872548999847,5.0,6.202258599980269,,,,,VN,001,2024-11-22_17h38.56.755,Disgust Thang,2024.1.5,None,2024-11-22 17h39.17.262399 +0530,
,,,,,,,16R,"Laws should be passed to make it legal for public employees such as police, firemen, teachers, and garbage collectors to go on strike. ",,,,,,,,,,,,,,,,,0,15,15,15,533.0135680999956,,,,,,,,,,,,,,,,,,,,,,,,,,,,,,,,,,,,,,,,,,,,,,,,,,,,,,,532.9875315999961,533.0135680999956,533.0135680999956,546.6550165999797,3.0,13.641974800004391,,,,,VN,001,2024-11-22_17h38.56.755,Disgust Thang,2024.1.5,None,2024-11-22 17h39.17.262399 +0530,
,,,,,,,17,Public schools should be required to teach the world's creation as written in the Bhagavad Gita in all classes that teach evolution theory.,,,,,,,,,,,,,,,,,0,16,16,16,546.6864829999977,,,,,,,,,,,,,,,,,,,,,,,,,,,,,,,,,,,,,,,,,,,,,,,,,,,,,,,546.6552994999802,546.6864829999977,546.6864829999977,556.3156695999787,3.0,9.631967100023758,,,,,VN,001,2024-11-22_17h38.56.755,Disgust Thang,2024.1.5,None,2024-11-22 17h39.17.262399 +0530,
,,,,,,,18,"The government should mandate family planning counseling and reversible sterilization for low-income, unmarried women with three or more children. ",,,,,,,,,,,,,,,,,0,17,17,17,556.3422419999843,,,,,,,,,,,,,,,,,,,,,,,,,,,,,,,,,,,,,,,,,,,,,,,,,,,,,,,556.3159507999953,556.3422419999843,556.3422419999843,569.4486400999886,2.0,13.106620599981397,,,,,VN,001,2024-11-22_17h38.56.755,Disgust Thang,2024.1.5,None,2024-11-22 17h39.17.262399 +0530,
,,,,,,,19R,"Birth control information, non-prescription contraceptive devices, and the morning-after pill should be made available on college campuses.",,,,,,,,,,,,,,,,,0,18,18,18,569.4764283999975,,,,,,,,,,,,,,,,,,,,,,,,,,,,,,,,,,,,,,,,,,,,,,,,,,,,,,,569.4489130000002,569.4764283999975,569.4764283999975,576.5702712000057,3.0,7.094083200005116,,,,,VN,001,2024-11-22_17h38.56.755,Disgust Thang,2024.1.5,None,2024-11-22 17h39.17.262399 +0530,
,,,,,,,20,"Evidence gathered by the police, even if an honest mistake was made in getting a warrant, should be used to help prosecute suspected criminals. ",,,,,,,,,,,,,,,,,0,19,19,19,576.5967314000009,,,,,,,,,,,,,,,,,,,,,,,,,,,,,,,,,,,,,,,,,,,,,,,,,,,,,,,576.5705322999856,576.5967314000009,576.5967314000009,585.1801964000042,4.0,8.583934100024635,,,,,VN,001,2024-11-22_17h38.56.755,Disgust Thang,2024.1.5,None,2024-11-22 17h39.17.262399 +0530,
,,,,,,,21,Inter-religious marriages should be abolished.,,,,,,,,,,,,,,,,,0,20,20,20,585.2039230999944,,,,,,,,,,,,,,,,,,,,,,,,,,,,,,,,,,,,,,,,,,,,,,,,,,,,,,,585.1804993999831,585.2039230999944,585.2039230999944,587.7480002999946,4.0,2.5441233000019565,,,,,VN,001,2024-11-22_17h38.56.755,Disgust Thang,2024.1.5,None,2024-11-22 17h39.17.262399 +0530,
,,,,,,,22R,"Requirements for any military duty, including combat, should be based on physical, emotional, and intellectual abilities, not gender or sexual orientation.",,,,,,,,,,,,,,,,,0,21,21,21,587.7733948999958,,,,,,,,,,,,,,,,,,,,,,,,,,,,,,,,,,,,,,,,,,,,,,,,,,,,,,,587.7483042999811,587.7733948999958,587.7733948999958,595.6474213000038,2.0,7.873506100004306,,,,,VN,001,2024-11-22_17h38.56.755,Disgust Thang,2024.1.5,None,2024-11-22 17h39.17.262399 +0530,
,,,,,,,23R,The law should make private employers hire minorities if they are qualified because they have been victims of discrimination in the past. ,,,,,,,,,,,,,,,,,0,22,22,22,595.6739019999804,,,,,,,,,,,,,,,,,,,,,,,,,,,,,,,,,,,,,,,,,,,,,,,,,,,,,,,595.64771629998,595.6739019999804,595.6739019999804,654.8356919999933,2.0,59.161592399992514,,,,,VN,001,2024-11-22_17h38.56.755,Disgust Thang,2024.1.5,None,2024-11-22 17h39.17.262399 +0530,
,,,,,,,24,Certain literature should be banned from city libraries if the librarian feels it is improper or too controversial.,,,,,,,,,,,,,,,,,0,23,23,23,654.8620881999959,,,,,,,,,,,,,,,,,,,,,,,,,,,,,,,,,,,,,,,,,,,,,,,,,,,,,,,654.8359905999969,654.8620881999959,654.8620881999959,662.8896494999935,4.0,8.026891199988313,,,,,VN,001,2024-11-22_17h38.56.755,Disgust Thang,2024.1.5,None,2024-11-22 17h39.17.262399 +0530,
,,,,,,,25R,The government should interfere during conversion from one religion to another.,,,,,,,,,,,,,,,,,0,24,24,24,662.9171447999834,,,,,,,,,,,,,,,,,,,,,,,,,,,,,,,,,,,,,,,,,,,,,,,,,,,,,,,662.8900324999995,662.9171447999834,662.9171447999834,666.3898612000048,4.0,3.472326699993573,,,,,VN,001,2024-11-22_17h38.56.755,Disgust Thang,2024.1.5,None,2024-11-22 17h39.17.262399 +0530,
,,,,,,,26R,The government should spend less on the military and more on education and the environment.,,,,,,,,,,,,,,,,,0,25,25,25,666.4167122999788,,,,,,,,,,,,,,,,,,,,,,,,,,,,,,,,,,,,,,,,,,,,,,,,,,,,,,,666.3901709999773,666.4167122999788,666.4167122999788,672.7050371999794,2.0,6.2884015000017826,,,,,VN,001,2024-11-22_17h38.56.755,Disgust Thang,2024.1.5,None,2024-11-22 17h39.17.262399 +0530,
,,,,,,,27R,India should not trade with or help any nation that violates human rights.,,,,,,,,,,,,,,,,,0,26,26,26,672.7326176999777,,,,,,,,,,,,,,,,,,,,,,,,,,,,,,,,,,,,,,,,,,,,,,,,,,,,,,,672.7053691000037,672.7326176999777,672.7326176999777,678.4530437999929,2.0,5.722118899982888,,,,,VN,001,2024-11-22_17h38.56.755,Disgust Thang,2024.1.5,None,2024-11-22 17h39.17.262399 +0530,
,,,,,,,28,People planning to get married should have a mandatory test for STDs such as AIDS and gonorrhea before a marriage certificate can be issued. ,,,,,,,,,,,,,,,,,0,27,27,27,678.4841637999925,,,,,,,,,,,,,,,,,,,,,,,,,,,,,,,,,,,,,,,,,,,,,,,,,,,,,,,678.4533422999957,678.4841637999925,678.4841637999925,690.1371017000056,1.0,11.65280700000585,,,,,VN,001,2024-11-22_17h38.56.755,Disgust Thang,2024.1.5,None,2024-11-22 17h39.17.262399 +0530,
,,,,,,,29,"There are too many lawsuits in the courts, and the courts do not have the time to deal with more severe issues. ",,,,,,,,,,,,,,,,,0,28,28,28,690.1654853999789,,,,,,,,,,,,,,,,,,,,,,,,,,,,,,,,,,,,,,,,,,,,,,,,,,,,,,,690.1374663999886,690.1654853999789,690.1654853999789,697.2866097999795,2.0,7.121607100008987,,,,,VN,001,2024-11-22_17h38.56.755,Disgust Thang,2024.1.5,None,2024-11-22 17h39.17.262399 +0530,
,,,,,,,30R,Nuclear power and nuclear-generating stations should be banned. ,,,,,,,,,,,,,,,,,0,29,29,29,697.3153339999844,,,,,,,,,,,,,,,,,,,,,,,,,,,,,,,,,,,,,,,,,,,,,,,,,,,,,,,697.2869214999955,697.3153339999844,697.3153339999844,707.3524208999879,4.0,10.037468399998033,,,,,VN,001,2024-11-22_17h38.56.755,Disgust Thang,2024.1.5,None,2024-11-22 17h39.17.262399 +0530,
,,,,,,,31R,The death penalty is clearly a form of cruel and unusual punishment and should be banned. ,,,,,,,,,,,,,,,,,0,30,30,30,707.3801869000017,,,,,,,,,,,,,,,,,,,,,,,,,,,,,,,,,,,,,,,,,,,,,,,,,,,,,,,707.3527200999961,707.3801869000017,707.3801869000017,715.377991699992,3.0,7.99971549998736,,,,,VN,001,2024-11-22_17h38.56.755,Disgust Thang,2024.1.5,None,2024-11-22 17h39.17.262399 +0530,
,,,,,,,32R,Sexual harassment of women in the workplace is a serious problem and should be prosecuted under law,,,,,,,,,,,,,,,,,0,31,31,31,715.4046885999851,,,,,,,,,,,,,,,,,,,,,,,,,,,,,,,,,,,,,,,,,,,,,,,,,,,,,,,715.3783080999856,715.4046885999851,715.4046885999851,720.4011301999853,1.0,4.996844299981603,,,,,VN,001,2024-11-22_17h38.56.755,Disgust Thang,2024.1.5,None,2024-11-22 17h39.17.262399 +0530,
,,,,,,,33R,"The primary function of prisons should be to rehabilitate criminals, not to punish them. ",,,,,,,,,,,,,,,,,0,32,32,32,720.428158499999,,,,,,,,,,,,,,,,,,,,,,,,,,,,,,,,,,,,,,,,,,,,,,,,,,,,,,,720.4014380000008,720.428158499999,720.428158499999,731.6989136000047,4.0,11.271472099993844,,,,,VN,001,2024-11-22_17h38.56.755,Disgust Thang,2024.1.5,None,2024-11-22 17h39.17.262399 +0530,
,,,,,,,34R,The states should abolish criminal penalties for victimless crimes such as gambling and prostitution. ,,,,,,,,,,,,,,,,,0,33,33,33,731.7264232999878,,,,,,,,,,,,,,,,,,,,,,,,,,,,,,,,,,,,,,,,,,,,,,,,,,,,,,,731.6992256999947,731.7264232999878,731.7264232999878,737.7313342999842,4.0,6.005392099992605,,,,,VN,001,2024-11-22_17h38.56.755,Disgust Thang,2024.1.5,None,2024-11-22 17h39.17.262399 +0530,
,,,,,,,35,The CBI should be able to wiretap the phones and read the mail of suspected individuals.,,,,,,,,,,,,,,,,,0,34,34,34,737.7592106999946,,,,,,,,,,,,,,,,,,,,,,,,,,,,,,,,,,,,,,,,,,,,,,,,,,,,,,,737.731612899981,737.7592106999946,737.7592106999946,743.8175636999949,3.0,6.058665899996413,,,,,VN,001,2024-11-22_17h38.56.755,Disgust Thang,2024.1.5,None,2024-11-22 17h39.17.262399 +0530,
,,,,,,,36R,"The central government must take strong steps to reverse global warming, even if it means losing some jobs. ",,,,,,,,,,,,,,,,,0,35,35,35,743.8470644000045,,,,,,,,,,,,,,,,,,,,,,,,,,,,,,,,,,,,,,,,,,,,,,,,,,,,,,,743.817868299986,743.8470644000045,743.8470644000045,749.6285830999841,1.0,5.7816726000164635,,,,,VN,001,2024-11-22_17h38.56.755,Disgust Thang,2024.1.5,None,2024-11-22 17h39.17.262399 +0530,
,,,,,,,37,Most youth who fall under the reservation scheme today are lazy and do not want to work.,,,,,,,,,,,,,,,,,0,36,36,36,749.6559711000009,,,,,,,,,,,,,,,,,,,,,,,,,,,,,,,,,,,,,,,,,,,,,,,,,,,,,,,749.6288829999976,749.6559711000009,749.6559711000009,782.6925265000027,4.0,33.03673870000057,,,,,VN,001,2024-11-22_17h38.56.755,Disgust Thang,2024.1.5,None,2024-11-22 17h39.17.262399 +0530,
,,,,,,,38,Profanity and sexually oriented material on television should be stopped or penalized by the government. ,,,,,,,,,,,,,,,,,0,37,37,37,782.720880799985,,,,,,,,,,,,,,,,,,,,,,,,,,,,,,,,,,,,,,,,,,,,,,,,,,,,,,,782.6928811999969,782.720880799985,782.720880799985,826.4936564999807,3.0,43.774438499996904,,,,,VN,001,2024-11-22_17h38.56.755,Disgust Thang,2024.1.5,None,2024-11-22 17h39.17.262399 +0530,
,,,,,,,39,"The government must stop the flow of immigrants, both legal and illegal, from Bangladesh.",,,,,,,,,,,,,,,,,0,38,38,38,826.5204313999857,,,,,,,,,,,,,,,,,,,,,,,,,,,,,,,,,,,,,,,,,,,,,,,,,,,,,,,826.4939454999985,826.5204313999857,826.5204313999857,834.5177392000041,3.0,7.996919700002763,,,,,VN,001,2024-11-22_17h38.56.755,Disgust Thang,2024.1.5,None,2024-11-22 17h39.17.262399 +0530,
,,,,,,,40R,There should be sensitization classes for individuals in the LGBTQ+ community in school.,,,,,,,,,,,,,,,,,0,39,39,39,834.547398900002,,,,,,,,,,,,,,,,,,,,,,,,,,,,,,,,,,,,,,,,,,,,,,,,,,,,,,,834.5180396999931,834.547398900002,834.547398900002,843.8778339999844,2.0,9.331632799992803,,,,,VN,001,2024-11-22_17h38.56.755,Disgust Thang,2024.1.5,None,2024-11-22 17h39.17.262399 +0530,
,,,,,,,,,,,,,,,,,,,,,,,,,,,,,,,,,,,,,,,,,,,,,,,,,,,,,,,,,,,,,,,,,,,,,,,,,,,,,,,,,,,,,,,,,,843.8780741999799,843.8835148999933,853.8892955000047,853.8737752999878,VN,001,2024-11-22_17h38.56.755,Disgust Thang,2024.1.5,None,2024-11-22 17h39.17.262399 +0530,
