dsr1_no,dsr1,dsr2_no,dsr_e,math_q,correct_resp,image_disgust,no,pol_ques,trials_4.thisRepN,trials_4.thisTrialN,trials_4.thisN,trials_4.thisIndex,trials_5.thisRepN,trials_5.thisTrialN,trials_5.thisN,trials_5.thisIndex,trials_3.thisRepN,trials_3.thisTrialN,trials_3.thisN,trials_3.thisIndex,trials.thisRepN,trials.thisTrialN,trials.thisN,trials.thisIndex,trials_2.thisRepN,trials_2.thisTrialN,trials_2.thisN,trials_2.thisIndex,thisRow.t,notes,consent_form.started,text_10.started,button_2.started,consent_form.stopped,button_2.numClicks,button_2.timesOn,button_2.timesOff,Introduction.started,text_3.started,button.started,Introduction.stopped,button.numClicks,button.timesOn,button.timesOff,dsr_a.started,text_6.started,text_7.started,slider_3.started,dsr_a.stopped,slider_3.response,slider_3.rt,dsr_b.started,text_8.started,text_9.started,slider_4.started,dsr_b.stopped,slider_4.response,slider_4.rt,distractor.started,text.started,textbox.started,buton.started,distractor.stopped,textbox.text,buton.numClicks,buton.timesOn,buton.timesOff,encoding.started,polygon.started,image.started,polygon.stopped,slider.started,image.stopped,encoding.stopped,slider.response,slider.rt,instruction.started,text_4.started,Button.started,instruction.stopped,Button.numClicks,Button.timesOn,Button.timesOff,testing.started,text_2.started,slider_2.started,testing.stopped,slider_2.response,slider_2.rt,exit_message.started,text_5.started,exit_message.stopped,participant,session,date,expName,psychopyVersion,frameRate,expStart,
,,,,,,,,,,,,,,,,,,,,,,,,,,,,,,,0.0026680000009946525,0.008384999993722886,0.008384999993722886,2.9413041999796405,1,[2.9378873000096064],[2.9378935000277124],,,,,,,,,,,,,,,,,,,,,,,,,,,,,,,,,,,,,,,,,,,,,,,,,,,,,,,,VP1,001,2024-11-22_00h51.45.219,Disgust Thang,2024.1.5,None,2024-11-22 00h51.55.520864 +0530,
,,,,,,,,,,,,,,,,,,,,,,,,,,,,,,,,,,,,,,2.941372199973557,2.9551562999840826,2.9551562999840826,3.939862399973208,1,[0.9975323000107892],[0.9975378000235651],,,,,,,,,,,,,,,,,,,,,,,,,,,,,,,,,,,,,,,,,,,,,,,,,VP1,001,2024-11-22_00h51.45.219,Disgust Thang,2024.1.5,None,2024-11-22 00h51.55.520864 +0530,
1r,"I might be willing to try eating monkey meat, under some circumstances",,,,,,,,0,0,0,0,,,,,,,,,,,,,,,,,3.9923673999728635,,,,,,,,,,,,,,,,3.945024699991336,3.9923673999728635,3.9923673999728635,3.9923673999728635,4.190733499999624,2.0,0.22272600000724196,,,,,,,,,,,,,,,,,,,,,,,,,,,,,,,,,,,,,,,,,,VP1,001,2024-11-22_00h51.45.219,Disgust Thang,2024.1.5,None,2024-11-22 00h51.55.520864 +0530,
2,"It would bother me to be in a science class, and to see a human hand preserved in a jar",,,,,,,,0,1,1,1,,,,,,,,,,,,,,,,,4.210482800001046,,,,,,,,,,,,,,,,4.1910403999791015,4.210482800001046,4.210482800001046,4.210482800001046,14.3559403999825,2.0,10.141833700006828,,,,,,,,,,,,,,,,,,,,,,,,,,,,,,,,,,,,,,,,,,VP1,001,2024-11-22_00h51.45.219,Disgust Thang,2024.1.5,None,2024-11-22 00h51.55.520864 +0530,
3,It bothers me to hear someone clear a throat full of mucous,,,,,,,,0,2,2,2,,,,,,,,,,,,,,,,,14.37391949997982,,,,,,,,,,,,,,,,14.356164199998602,14.37391949997982,14.37391949997982,14.37391949997982,18.32216659997357,3.0,3.944405399990501,,,,,,,,,,,,,,,,,,,,,,,,,,,,,,,,,,,,,,,,,,VP1,001,2024-11-22_00h51.45.219,Disgust Thang,2024.1.5,None,2024-11-22 00h51.55.520864 +0530,
4,I never let any part of my body touch the toilet seat in public restrooms. ,,,,,,,,0,3,3,3,,,,,,,,,,,,,,,,,18.340453699987847,,,,,,,,,,,,,,,,18.322392299975036,18.340453699987847,18.340453699987847,18.340453699987847,21.33823539997684,1.0,2.99400579999201,,,,,,,,,,,,,,,,,,,,,,,,,,,,,,,,,,,,,,,,,,VP1,001,2024-11-22_00h51.45.219,Disgust Thang,2024.1.5,None,2024-11-22 00h51.55.520864 +0530,
5,I would go out of my way to avoid walking through a graveyard. ,,,,,,,,0,4,4,4,,,,,,,,,,,,,,,,,21.35667189999367,,,,,,,,,,,,,,,,21.33845709997695,21.35667189999367,21.35667189999367,21.35667189999367,25.821124499983853,1.0,4.460798999993131,,,,,,,,,,,,,,,,,,,,,,,,,,,,,,,,,,,,,,,,,,VP1,001,2024-11-22_00h51.45.219,Disgust Thang,2024.1.5,None,2024-11-22 00h51.55.520864 +0530,
6r,Seeing a cockroach in someone else's house doesn't bother me. ,,,,,,,,0,5,5,5,,,,,,,,,,,,,,,,,25.84085999999661,,,,,,,,,,,,,,,,25.821347499993863,25.84085999999661,25.84085999999661,25.84085999999661,30.47050369999488,4.0,4.625699600001099,,,,,,,,,,,,,,,,,,,,,,,,,,,,,,,,,,,,,,,,,,VP1,001,2024-11-22_00h51.45.219,Disgust Thang,2024.1.5,None,2024-11-22 00h51.55.520864 +0530,
7,It would bother me tremendously to touch a dead body. ,,,,,,,,0,6,6,6,,,,,,,,,,,,,,,,,30.48861049997504,,,,,,,,,,,,,,,,30.47072539999499,30.48861049997504,30.48861049997504,30.48861049997504,79.76442229998065,1.0,49.27200949998223,,,,,,,,,,,,,,,,,,,,,,,,,,,,,,,,,,,,,,,,,,VP1,001,2024-11-22_00h51.45.219,Disgust Thang,2024.1.5,None,2024-11-22 00h51.55.520864 +0530,
8,"If I see someone vomit, it makes me sick to my stomach. ",,,,,,,,0,7,7,7,,,,,,,,,,,,,,,,,79.78240820000065,,,,,,,,,,,,,,,,79.76464629999828,79.78240820000065,79.78240820000065,79.78240820000065,84.48026819998631,2.0,4.693846999987727,,,,,,,,,,,,,,,,,,,,,,,,,,,,,,,,,,,,,,,,,,VP1,001,2024-11-22_00h51.45.219,Disgust Thang,2024.1.5,None,2024-11-22 00h51.55.520864 +0530,
9,I probably would not go to my favorite restaurant if I found out that the cook had a cold. ,,,,,,,,0,8,8,8,,,,,,,,,,,,,,,,,84.49920929997461,,,,,,,,,,,,,,,,84.48048959998414,84.49920929997461,84.49920929997461,84.49920929997461,89.9295407999889,1.0,5.426754600019194,,,,,,,,,,,,,,,,,,,,,,,,,,,,,,,,,,,,,,,,,,VP1,001,2024-11-22_00h51.45.219,Disgust Thang,2024.1.5,None,2024-11-22 00h51.55.520864 +0530,
10r,"It would not upset me at all to watch a person with a glass eye take the eye 
out of the socket.  ",,,,,,,,0,9,9,9,,,,,,,,,,,,,,,,,89.94905339999241,,,,,,,,,,,,,,,,89.9297583999869,89.94905339999241,89.94905339999241,89.94905339999241,96.47882369998842,4.0,6.5258267000026535,,,,,,,,,,,,,,,,,,,,,,,,,,,,,,,,,,,,,,,,,,VP1,001,2024-11-22_00h51.45.219,Disgust Thang,2024.1.5,None,2024-11-22 00h51.55.520864 +0530,
11,It would bother me to see a rat run across my path in a park. ,,,,,,,,0,10,10,10,,,,,,,,,,,,,,,,,96.49708269999246,,,,,,,,,,,,,,,,96.47904169998947,96.49708269999246,96.49708269999246,96.49708269999246,100.5949134999828,0.0,4.094066599995131,,,,,,,,,,,,,,,,,,,,,,,,,,,,,,,,,,,,,,,,,,VP1,001,2024-11-22_00h51.45.219,Disgust Thang,2024.1.5,None,2024-11-22 00h51.55.520864 +0530,
12d,I would rather eat a piece of fruit than a piece of paper ,,,,,,,,0,11,11,11,,,,,,,,,,,,,,,,,100.61328549997415,,,,,,,,,,,,,,,,100.59513089997927,100.61328549997415,100.61328549997415,100.61328549997415,108.04386809997959,4.0,7.427462999999989,,,,,,,,,,,,,,,,,,,,,,,,,,,,,,,,,,,,,,,,,,VP1,001,2024-11-22_00h51.45.219,Disgust Thang,2024.1.5,None,2024-11-22 00h51.55.520864 +0530,
13,"Even if I was hungry, I would not drink a bowl of my favorite soup if it had been
stirred by a used but thoroughly washed flyswatter. ",,,,,,,,0,12,12,12,,,,,,,,,,,,,,,,,108.06475389999105,,,,,,,,,,,,,,,,108.04408769999282,108.06475389999105,108.06475389999105,108.06475389999105,115.95953819999704,1.0,7.891341499984264,,,,,,,,,,,,,,,,,,,,,,,,,,,,,,,,,,,,,,,,,,VP1,001,2024-11-22_00h51.45.219,Disgust Thang,2024.1.5,None,2024-11-22 00h51.55.520864 +0530,
14,"It would bother me to sleep in a nice hotel room if I knew that a man had died of a
heart attack in that room the night before. ",,,,,,,,0,13,13,13,,,,,,,,,,,,,,,,,115.9791375999921,,,,,,,,,,,,,,,,115.95975669997279,115.9791375999921,115.9791375999921,115.9791375999921,123.02540029998636,1.0,7.042400400008773,,,,,,,,,,,,,,,,,,,,,,,,,,,,,,,,,,,,,,,,,,VP1,001,2024-11-22_00h51.45.219,Disgust Thang,2024.1.5,None,2024-11-22 00h51.55.520864 +0530,
,,15,You see maggots on a piece of meat in an outdoor garbage pail. ,,,,,,,,,,0,0,0,0,,,,,,,,,,,,,123.05009569998947,,,,,,,,,,,,,,,,,,,,,,,123.02978729997994,123.05009569998947,123.05009569998947,123.05009569998947,128.12486039998475,4.0,5.07350860000588,,,,,,,,,,,,,,,,,,,,,,,,,,,,,,,,,,,VP1,001,2024-11-22_00h51.45.219,Disgust Thang,2024.1.5,None,2024-11-22 00h51.55.520864 +0530,
,,16d,You see a person eating an apple with a knife and fork,,,,,,,,,,0,1,1,1,,,,,,,,,,,,,128.14310249997652,,,,,,,,,,,,,,,,,,,,,,,128.12515359997633,128.14310249997652,128.14310249997652,128.14310249997652,134.1740187999967,0.0,6.027289599995129,,,,,,,,,,,,,,,,,,,,,,,,,,,,,,,,,,,VP1,001,2024-11-22_00h51.45.219,Disgust Thang,2024.1.5,None,2024-11-22 00h51.55.520864 +0530,
,,17,"While you are walking through a tunnel under a railroad track, you smell urine. ",,,,,,,,,,0,2,2,2,,,,,,,,,,,,,134.19366679998348,,,,,,,,,,,,,,,,,,,,,,,134.17428119998658,134.19366679998348,134.19366679998348,134.19366679998348,142.4227861999825,3.0,8.225361899996642,,,,,,,,,,,,,,,,,,,,,,,,,,,,,,,,,,,VP1,001,2024-11-22_00h51.45.219,Disgust Thang,2024.1.5,None,2024-11-22 00h51.55.520864 +0530,
,,18,"You take a sip of soda, and then realize that you drank from the glass that an
 		acquaintance of yours had been drinking from",,,,,,,,,,0,3,3,3,,,,,,,,,,,,,142.4446420999884,,,,,,,,,,,,,,,,,,,,,,,142.42302239997662,142.4446420999884,142.4446420999884,142.4446420999884,150.43850389998988,1.0,7.990288100001635,,,,,,,,,,,,,,,,,,,,,,,,,,,,,,,,,,,VP1,001,2024-11-22_00h51.45.219,Disgust Thang,2024.1.5,None,2024-11-22 00h51.55.520864 +0530,
,,19,"Your friend's pet cat dies, and you have to pick up the dead body with your bare hands.  ",,,,,,,,,,0,4,4,4,,,,,,,,,,,,,150.45734519997495,,,,,,,,,,,,,,,,,,,,,,,150.438723499974,150.45734519997495,150.45734519997495,150.45734519997495,158.5873718999792,3.0,8.12618309998652,,,,,,,,,,,,,,,,,,,,,,,,,,,,,,,,,,,VP1,001,2024-11-22_00h51.45.219,Disgust Thang,2024.1.5,None,2024-11-22 00h51.55.520864 +0530,
,,20,"You see someone put ketchup on vanilla ice cream, and eat it. ",,,,,,,,,,0,5,5,5,,,,,,,,,,,,,158.60578509999323,,,,,,,,,,,,,,,,,,,,,,,158.5875878999941,158.60578509999323,158.60578509999323,158.60578509999323,164.35361609997926,3.0,5.74385309999343,,,,,,,,,,,,,,,,,,,,,,,,,,,,,,,,,,,VP1,001,2024-11-22_00h51.45.219,Disgust Thang,2024.1.5,None,2024-11-22 00h51.55.520864 +0530,
,,21,You see a man with his intestines exposed after an accident. ,,,,,,,,,,0,6,6,6,,,,,,,,,,,,,164.37151559998165,,,,,,,,,,,,,,,,,,,,,,,164.35384309999063,164.37151559998165,164.37151559998165,164.37151559998165,169.96945159998722,4.0,5.594075800006976,,,,,,,,,,,,,,,,,,,,,,,,,,,,,,,,,,,VP1,001,2024-11-22_00h51.45.219,Disgust Thang,2024.1.5,None,2024-11-22 00h51.55.520864 +0530,
,,22,You discover that a friend of yours changes underwear only once a week. ,,,,,,,,,,0,7,7,7,,,,,,,,,,,,,169.98797109999578,,,,,,,,,,,,,,,,,,,,,,,169.9696733999881,169.98797109999578,169.98797109999578,169.98797109999578,177.13499969997793,2.0,7.143708699994022,,,,,,,,,,,,,,,,,,,,,,,,,,,,,,,,,,,VP1,001,2024-11-22_00h51.45.219,Disgust Thang,2024.1.5,None,2024-11-22 00h51.55.520864 +0530,
,,23,A friend offers you a piece of chocolate shaped like dog doo. ,,,,,,,,,,0,8,8,8,,,,,,,,,,,,,177.1546605999756,,,,,,,,,,,,,,,,,,,,,,,177.1352235999948,177.1546605999756,177.1546605999756,177.1546605999756,183.4675647999975,1.0,6.309551599988481,,,,,,,,,,,,,,,,,,,,,,,,,,,,,,,,,,,VP1,001,2024-11-22_00h51.45.219,Disgust Thang,2024.1.5,None,2024-11-22 00h51.55.520864 +0530,
,,24,You accidentally touch the ashes of a person who has been cremated. ,,,,,,,,,,0,9,9,9,,,,,,,,,,,,,183.4862178999756,,,,,,,,,,,,,,,,,,,,,,,183.46777969997493,183.4862178999756,183.4862178999756,183.4862178999756,187.5171925999748,0.0,4.027734999981476,,,,,,,,,,,,,,,,,,,,,,,,,,,,,,,,,,,VP1,001,2024-11-22_00h51.45.219,Disgust Thang,2024.1.5,None,2024-11-22 00h51.55.520864 +0530,
,,25,You are about to drink a glass of milk when you smell that it is spoiled. ,,,,,,,,,,0,10,10,10,,,,,,,,,,,,,187.5356076999742,,,,,,,,,,,,,,,,,,,,,,,187.51741189998575,187.5356076999742,187.5356076999742,187.5356076999742,194.53296759998193,2.0,6.993567400000757,,,,,,,,,,,,,,,,,,,,,,,,,,,,,,,,,,,VP1,001,2024-11-22_00h51.45.219,Disgust Thang,2024.1.5,None,2024-11-22 00h51.55.520864 +0530,
,,26,"As part of a sex education class, you are required to inflate a new unlubricated
		condom, using your mouth. ",,,,,,,,,,0,11,11,11,,,,,,,,,,,,,194.55205749999732,,,,,,,,,,,,,,,,,,,,,,,194.53319209997426,194.55205749999732,194.55205749999732,194.55205749999732,204.29845679999562,1.0,9.742581200000132,,,,,,,,,,,,,,,,,,,,,,,,,,,,,,,,,,,VP1,001,2024-11-22_00h51.45.219,Disgust Thang,2024.1.5,None,2024-11-22 00h51.55.520864 +0530,
,,27,"You are walking barefoot on concrete, and you step on an earthworm. ",,,,,,,,,,0,12,12,12,,,,,,,,,,,,,204.31646459997864,,,,,,,,,,,,,,,,,,,,,,,204.29867979997653,204.31646459997864,204.31646459997864,204.31646459997864,213.36399829998845,2.0,9.043790600000648,,,,,,,,,,,,,,,,,,,,,,,,,,,,,,,,,,,VP1,001,2024-11-22_00h51.45.219,Disgust Thang,2024.1.5,None,2024-11-22 00h51.55.520864 +0530,
,,,,15-7,8,,,,,,,,,,,,0,0,0,0,,,,,,,,,213.3849984999979,,,,,,,,,,,,,,,,,,,,,,,,,,,,,,213.36806969999452,213.3849984999979,213.3849984999979,213.3849984999979,222.26297399998293,8,1,[8.890343399980338],[8.890350399975432],,,,,,,,,,,,,,,,,,,,,,,,,,VP1,001,2024-11-22_00h51.45.219,Disgust Thang,2024.1.5,None,2024-11-22 00h51.55.520864 +0530,
,,,,5*7,35,,,,,,,,,,,,0,1,1,1,,,,,,,,,222.2768438999774,,,,,,,,,,,,,,,,,,,,,,,,,,,,,,222.26344269997207,222.2768438999774,222.2768438999774,222.2768438999774,225.77826389999245,35,1,[3.510602700000163],[3.5106091999914497],,,,,,,,,,,,,,,,,,,,,,,,,,VP1,001,2024-11-22_00h51.45.219,Disgust Thang,2024.1.5,None,2024-11-22 00h51.55.520864 +0530,
,,,,42/7,6,,,,,,,,,,,,0,2,2,2,,,,,,,,,225.7931223999767,,,,,,,,,,,,,,,,,,,,,,,,,,,,,,225.77861369997845,225.7931223999767,225.7931223999767,225.7931223999767,230.52814519999083,6,1,[4.744493200007128],[4.744498900021426],,,,,,,,,,,,,,,,,,,,,,,,,,VP1,001,2024-11-22_00h51.45.219,Disgust Thang,2024.1.5,None,2024-11-22 00h51.55.520864 +0530,
,,,,51-17,34,,,,,,,,,,,,0,3,3,3,,,,,,,,,230.5425084999879,,,,,,,,,,,,,,,,,,,,,,,,,,,,,,230.52849059997243,230.5425084999879,230.5425084999879,230.5425084999879,239.29361289998633,34,1,[8.762728200003039],[8.76274549998925],,,,,,,,,,,,,,,,,,,,,,,,,,VP1,001,2024-11-22_00h51.45.219,Disgust Thang,2024.1.5,None,2024-11-22 00h51.55.520864 +0530,
,,,,19*8,152,,,,,,,,,,,,0,4,4,4,,,,,,,,,239.3079383999866,,,,,,,,,,,,,,,,,,,,,,,,,,,,,,239.29395289998502,239.3079383999866,239.3079383999866,239.3079383999866,247.92475989999366,152,1,[8.626083599985577],[8.626089099998353],,,,,,,,,,,,,,,,,,,,,,,,,,VP1,001,2024-11-22_00h51.45.219,Disgust Thang,2024.1.5,None,2024-11-22 00h51.55.520864 +0530,
,,,,6* (25+3),168,,,,,,,,,,,,0,5,5,5,,,,,,,,,247.94015619999846,,,,,,,,,,,,,,,,,,,,,,,,,,,,,,247.92510459999903,247.94015619999846,247.94015619999846,247.94015619999846,276.6557534999738,168,1,[28.72514160000719],[28.725147199991625],,,,,,,,,,,,,,,,,,,,,,,,,,VP1,001,2024-11-22_00h51.45.219,Disgust Thang,2024.1.5,None,2024-11-22 00h51.55.520864 +0530,
,,,,,,images/1253_hygiene.png,,,,,,,,,,,,,,,0,0,0,8,,,,,277.01517359999707,,,,,,,,,,,,,,,,,,,,,,,,,,,,,,,,,,,,,,,276.7797205999959,277.01517359999707,277.67551509998157,278.0201893999765,284.66898849999416,287.68498609997914,291.62056369998027,1.988888888888889,14.593765300000086,,,,,,,,,,,,,,,,,VP1,001,2024-11-22_00h51.45.219,Disgust Thang,2024.1.5,None,2024-11-22 00h51.55.520864 +0530,
,,,,,,images/1182_injuries_infections.png,,,,,,,,,,,,,,,0,1,1,5,,,,,291.8022166999872,,,,,,,,,,,,,,,,,,,,,,,,,,,,,,,,,,,,,,,291.6208499999775,291.8022166999872,292.6351676999766,292.8016549999884,299.6336519999895,,302.21915399999125,3.011111111111111,10.404956000013044,,,,,,,,,,,,,,,,,VP1,001,2024-11-22_00h51.45.219,Disgust Thang,2024.1.5,None,2024-11-22 00h51.55.520864 +0530,
,,,,,,images/1118_body products.png,,,,,,,,,,,,,,,0,2,2,3,,,,,302.37051169999177,,,,,,,,,,,,,,,,,,,,,,,,,,,,,,,,,,,,,,,302.21936540000024,302.37051169999177,303.23391509999055,303.3835086999752,310.232319999981,,312.6344230999821,1.0888888888888888,10.251843499980168,,,,,,,,,,,,,,,,,VP1,001,2024-11-22_00h51.45.219,Disgust Thang,2024.1.5,None,2024-11-22 00h51.55.520864 +0530,
,,,,,,images/1033_food.png,,,,,,,,,,,,,,,0,3,3,0,,,,,312.7946698999731,,,,,,,,,,,,,,,,,,,,,,,,,,,,,,,,,,,,,,,312.6346320999728,312.7946698999731,313.6490400999901,313.7986477999948,320.6476475999807,323.66377909999574,324.43285990000004,1,11.625826200004667,,,,,,,,,,,,,,,,,VP1,001,2024-11-22_00h51.45.219,Disgust Thang,2024.1.5,None,2024-11-22 00h51.55.520864 +0530,
,,,,,,images/1110_body products.png,,,,,,,,,,,,,,,0,4,4,2,,,,,324.5606112999958,,,,,,,,,,,,,,,,,,,,,,,,,,,,,,,,,,,,,,,324.43307049997384,324.5606112999958,325.4477364999766,325.56406539998716,332.44599979999475,,333.7985020999913,1,9.225756699976046,,,,,,,,,,,,,,,,,VP1,001,2024-11-22_00h51.45.219,Disgust Thang,2024.1.5,None,2024-11-22 00h51.55.520864 +0530,
,,,,,,images/1034_food.png,,,,,,,,,,,,,,,0,5,5,1,,,,,334.0529513999936,,,,,,,,,,,,,,,,,,,,,,,,,,,,,,,,,,,,,,,333.798713199998,334.0529513999936,334.81312989999424,335.0628518999729,341.8113745999872,,343.0807554999774,1.0518518518518518,9.015600199985784,,,,,,,,,,,,,,,,,VP1,001,2024-11-22_00h51.45.219,Disgust Thang,2024.1.5,None,2024-11-22 00h51.55.520864 +0530,
,,,,,,images/1171_injuries_infections.png,,,,,,,,,,,,,,,0,6,6,4,,,,,343.2898197999748,,,,,,,,,,,,,,,,,,,,,,,,,,,,,,,,,,,,,,,343.08097219999763,343.2898197999748,344.09535479999613,344.29494429999613,351.09379509999417,,352.82943999997224,1.951851851851852,9.527406100009102,,,,,,,,,,,,,,,,,VP1,001,2024-11-22_00h51.45.219,Disgust Thang,2024.1.5,None,2024-11-22 00h51.55.520864 +0530,
,,,,,,images/1201_death.png,,,,,,,,,,,,,,,0,7,7,6,,,,,352.9754833999905,,,,,,,,,,,,,,,,,,,,,,,,,,,,,,,,,,,,,,,352.8296530999942,352.9754833999905,353.84410689998185,353.9770318999945,360.8423034999869,,362.4946417999745,1.037037037037037,9.507140299974708,,,,,,,,,,,,,,,,,VP1,001,2024-11-22_00h51.45.219,Disgust Thang,2024.1.5,None,2024-11-22 00h51.55.520864 +0530,
,,,,,,images/1218_death.png,,,,,,,,,,,,,,,0,8,8,7,,,,,362.5988238999853,,,,,,,,,,,,,,,,,,,,,,,,,,,,,,,,,,,,,,,362.49486079998314,362.5988238999853,363.5095102999767,363.6091795999964,370.50781439998536,373.5242139999755,374.5766230999725,1.0740740740740742,11.965373199986061,,,,,,,,,,,,,,,,,VP1,001,2024-11-22_00h51.45.219,Disgust Thang,2024.1.5,None,2024-11-22 00h51.55.520864 +0530,
,,,,,,,,,,,,,,,,,,,,,,,,,,,,,,,,,,,,,,,,,,,,,,,,,,,,,,,,,,,,,,,,,,,,,,,,,,,,,374.57676909997826,374.59095659997547,374.59095659997547,380.3909996000002,1,[5.813315400009742],[5.81332200000179],,,,,,,,,,VP1,001,2024-11-22_00h51.45.219,Disgust Thang,2024.1.5,None,2024-11-22 00h51.55.520864 +0530,
,,,,,,,1R,The government should pass a Constitutional amendment that would make it illegal to discriminate against anyone in any situation based on sexual orientation.,,,,,,,,,,,,,,,,,0,0,0,0,380.4235623999848,,,,,,,,,,,,,,,,,,,,,,,,,,,,,,,,,,,,,,,,,,,,,,,,,,,,,,,380.3973805999849,380.4235623999848,380.4235623999848,380.62568859997555,3.0,0.2025236000190489,,,,VP1,001,2024-11-22_00h51.45.219,Disgust Thang,2024.1.5,None,2024-11-22 00h51.55.520864 +0530,
,,,,,,,2R,"The national government should establish a centrally funded medical program so that all persons, regardless of means, have access to medical care.",,,,,,,,,,,,,,,,,0,1,1,1,380.6459111000004,,,,,,,,,,,,,,,,,,,,,,,,,,,,,,,,,,,,,,,,,,,,,,,,,,,,,,,380.62598149999394,380.6459111000004,380.6459111000004,400.3567009999824,2.0,19.706538500002353,,,,VP1,001,2024-11-22_00h51.45.219,Disgust Thang,2024.1.5,None,2024-11-22 00h51.55.520864 +0530,
,,,,,,,3,It should be legal and constitutional to say a prayer at the beginning of assemblies in public schools.,,,,,,,,,,,,,,,,,0,2,2,2,400.37539000000106,,,,,,,,,,,,,,,,,,,,,,,,,,,,,,,,,,,,,,,,,,,,,,,,,,,,,,,400.3569289999723,400.37539000000106,400.37539000000106,414.2881173999922,3.0,13.908218099997612,,,,VP1,001,2024-11-22_00h51.45.219,Disgust Thang,2024.1.5,None,2024-11-22 00h51.55.520864 +0530,
,,,,,,,4R,Persons should be allowed to join and serve in the military regardless of their sexual preference as long as their behavior meets strict military standards.,,,,,,,,,,,,,,,,,0,3,3,3,414.3080610999896,,,,,,,,,,,,,,,,,,,,,,,,,,,,,,,,,,,,,,,,,,,,,,,,,,,,,,,414.28834289999213,414.3080610999896,414.3080610999896,427.02000199997565,2.0,12.707382499997038,,,,VP1,001,2024-11-22_00h51.45.219,Disgust Thang,2024.1.5,None,2024-11-22 00h51.55.520864 +0530,
,,,,,,,5R,A person should be able to use and grow small quantities of marijuana in the privacy of his or her own home with no legal consequences.,,,,,,,,,,,,,,,,,0,4,4,4,427.0399151999736,,,,,,,,,,,,,,,,,,,,,,,,,,,,,,,,,,,,,,,,,,,,,,,,,,,,,,,427.0202313999762,427.0399151999736,427.0399151999736,435.6185773999896,1.0,8.574473699991358,,,,VP1,001,2024-11-22_00h51.45.219,Disgust Thang,2024.1.5,None,2024-11-22 00h51.55.520864 +0530,
,,,,,,,6,"Persons receiving the death penalty should be limited in their number of appeals, and the death sentence should be carried out in a shorter time period than it is now.",,,,,,,,,,,,,,,,,0,5,5,5,435.63839899998857,,,,,,,,,,,,,,,,,,,,,,,,,,,,,,,,,,,,,,,,,,,,,,,,,,,,,,,435.61880309999106,435.63839899998857,435.63839899998857,448.80038529998274,4.0,13.15756700001657,,,,VP1,001,2024-11-22_00h51.45.219,Disgust Thang,2024.1.5,None,2024-11-22 00h51.55.520864 +0530,
,,,,,,,7,The government should reverse its decision on abortion and make it more challenging to have an abortion except in special cases such as rape and incest. ,,,,,,,,,,,,,,,,,0,6,6,6,448.82053979998454,,,,,,,,,,,,,,,,,,,,,,,,,,,,,,,,,,,,,,,,,,,,,,,,,,,,,,,448.80061449998175,448.82053979998454,448.82053979998454,458.748978299991,2.0,9.924278299993603,,,,VP1,001,2024-11-22_00h51.45.219,Disgust Thang,2024.1.5,None,2024-11-22 00h51.55.520864 +0530,
,,,,,,,8,India should require one year of military service for all able-bodied people.,,,,,,,,,,,,,,,,,0,7,7,7,458.7678280999826,,,,,,,,,,,,,,,,,,,,,,,,,,,,,,,,,,,,,,,,,,,,,,,,,,,,,,,458.74920349998865,458.7678280999826,458.7678280999826,468.0147279999801,3.0,9.242732700018678,,,,VP1,001,2024-11-22_00h51.45.219,Disgust Thang,2024.1.5,None,2024-11-22 00h51.55.520864 +0530,
,,,,,,,9,"Parents should be able to send their children to any school they choose, and tax money should be used to support the schools that parents choose.",,,,,,,,,,,,,,,,,0,8,8,8,468.03398719997494,,,,,,,,,,,,,,,,,,,,,,,,,,,,,,,,,,,,,,,,,,,,,,,,,,,,,,,468.0149520999985,468.03398719997494,468.03398719997494,478.2463818999822,1.0,10.208321299985982,,,,VP1,001,2024-11-22_00h51.45.219,Disgust Thang,2024.1.5,None,2024-11-22 00h51.55.520864 +0530,
,,,,,,,10,Police should be able to confiscate any materials that are deemed to be obscene or pornographic. ,,,,,,,,,,,,,,,,,0,9,9,9,478.26463759999024,,,,,,,,,,,,,,,,,,,,,,,,,,,,,,,,,,,,,,,,,,,,,,,,,,,,,,,478.24660639997455,478.26463759999024,478.26463759999024,491.0115389999992,4.0,12.742509699979564,,,,VP1,001,2024-11-22_00h51.45.219,Disgust Thang,2024.1.5,None,2024-11-22 00h51.55.520864 +0530,
,,,,,,,11,The central government should be required to have a balanced budget that does not spend more than the money that comes in from taxes,,,,,,,,,,,,,,,,,0,10,10,10,491.03064449998783,,,,,,,,,,,,,,,,,,,,,,,,,,,,,,,,,,,,,,,,,,,,,,,,,,,,,,,491.0117683999997,491.03064449998783,491.03064449998783,502.19349199999124,3.0,11.158174300013343,,,,VP1,001,2024-11-22_00h51.45.219,Disgust Thang,2024.1.5,None,2024-11-22 00h51.55.520864 +0530,
,,,,,,,12R, Laws that limit the sale of fireworks and other explosive materials that are not intended for legitimate cultural or religious purposes should be passed.,,,,,,,,,,,,,,,,,0,11,11,11,502.21570469997823,,,,,,,,,,,,,,,,,,,,,,,,,,,,,,,,,,,,,,,,,,,,,,,,,,,,,,,502.19371110000066,502.21570469997823,502.21570469997823,524.3072693999857,2.0,22.087415199988754,,,,VP1,001,2024-11-22_00h51.45.219,Disgust Thang,2024.1.5,None,2024-11-22 00h51.55.520864 +0530,
,,,,,,,13R,Sex education should be in taught all public schools and all students should be required to take the class unless exempted by parents. ,,,,,,,,,,,,,,,,,0,12,12,12,524.3270559999801,,,,,,,,,,,,,,,,,,,,,,,,,,,,,,,,,,,,,,,,,,,,,,,,,,,,,,,524.3074923999957,524.3270559999801,524.3270559999801,538.4055641999876,1.0,14.074601799977245,,,,VP1,001,2024-11-22_00h51.45.219,Disgust Thang,2024.1.5,None,2024-11-22 00h51.55.520864 +0530,
,,,,,,,14,Reservation system should be abolished in India. ,,,,,,,,,,,,,,,,,0,13,13,13,538.4264413999917,,,,,,,,,,,,,,,,,,,,,,,,,,,,,,,,,,,,,,,,,,,,,,,,,,,,,,,538.4057893999852,538.4264413999917,538.4264413999917,543.0216470999876,2.0,4.592409900011262,,,,VP1,001,2024-11-22_00h51.45.219,Disgust Thang,2024.1.5,None,2024-11-22 00h51.55.520864 +0530,
,,,,,,,15,"The Prime Minister, without permission from the President, should be able to use the armed forces and call for an emergency in possible combat areas for as long as he/she deems necessary. ",,,,,,,,,,,,,,,,,0,14,14,14,543.0435220999934,,,,,,,,,,,,,,,,,,,,,,,,,,,,,,,,,,,,,,,,,,,,,,,,,,,,,,,543.0218714999792,543.0435220999934,543.0435220999934,559.7192933999759,4.0,16.671554900007322,,,,VP1,001,2024-11-22_00h51.45.219,Disgust Thang,2024.1.5,None,2024-11-22 00h51.55.520864 +0530,
,,,,,,,16R,"Laws should be passed to make it legal for public employees such as police, firemen, teachers, and garbage collectors to go on strike. ",,,,,,,,,,,,,,,,,0,15,15,15,559.739019199973,,,,,,,,,,,,,,,,,,,,,,,,,,,,,,,,,,,,,,,,,,,,,,,,,,,,,,,559.7195197999827,559.739019199973,559.739019199973,578.400470499997,3.0,18.657278900005622,,,,VP1,001,2024-11-22_00h51.45.219,Disgust Thang,2024.1.5,None,2024-11-22 00h51.55.520864 +0530,
,,,,,,,17,Public schools should be required to teach the world's creation as written in the Bhagavad Gita in all classes that teach evolution theory.,,,,,,,,,,,,,,,,,0,16,16,16,578.4228650000005,,,,,,,,,,,,,,,,,,,,,,,,,,,,,,,,,,,,,,,,,,,,,,,,,,,,,,,578.4006907999865,578.4228650000005,578.4228650000005,592.9816949999949,4.0,14.555552099976921,,,,VP1,001,2024-11-22_00h51.45.219,Disgust Thang,2024.1.5,None,2024-11-22 00h51.55.520864 +0530,
,,,,,,,18,"The government should mandate family planning counseling and reversible sterilization for low-income, unmarried women with three or more children. ",,,,,,,,,,,,,,,,,0,17,17,17,593.0010930999997,,,,,,,,,,,,,,,,,,,,,,,,,,,,,,,,,,,,,,,,,,,,,,,,,,,,,,,592.9819200999918,593.0010930999997,593.0010930999997,637.2927319999726,2.0,44.287421899993205,,,,VP1,001,2024-11-22_00h51.45.219,Disgust Thang,2024.1.5,None,2024-11-22 00h51.55.520864 +0530,
,,,,,,,19R,"Birth control information, non-prescription contraceptive devices, and the morning-after pill should be made available on college campuses.",,,,,,,,,,,,,,,,,0,18,18,18,637.3123577999941,,,,,,,,,,,,,,,,,,,,,,,,,,,,,,,,,,,,,,,,,,,,,,,,,,,,,,,637.292953999975,637.3123577999941,637.3123577999941,654.3905452999752,2.0,17.073734900011914,,,,VP1,001,2024-11-22_00h51.45.219,Disgust Thang,2024.1.5,None,2024-11-22 00h51.55.520864 +0530,
,,,,,,,20,"Evidence gathered by the police, even if an honest mistake was made in getting a warrant, should be used to help prosecute suspected criminals. ",,,,,,,,,,,,,,,,,0,19,19,19,654.4103861999756,,,,,,,,,,,,,,,,,,,,,,,,,,,,,,,,,,,,,,,,,,,,,,,,,,,,,,,654.390765899996,654.4103861999756,654.4103861999756,673.7715396999847,3.0,19.35703650000505,,,,VP1,001,2024-11-22_00h51.45.219,Disgust Thang,2024.1.5,None,2024-11-22 00h51.55.520864 +0530,
,,,,,,,21,Inter-religious marriages should be abolished.,,,,,,,,,,,,,,,,,0,20,20,20,673.7895619999908,,,,,,,,,,,,,,,,,,,,,,,,,,,,,,,,,,,,,,,,,,,,,,,,,,,,,,,673.7717635999725,673.7895619999908,673.7895619999908,677.2711496999837,5.0,3.4773820000118576,,,,VP1,001,2024-11-22_00h51.45.219,Disgust Thang,2024.1.5,None,2024-11-22 00h51.55.520864 +0530,
,,,,,,,22R,"Requirements for any military duty, including combat, should be based on physical, emotional, and intellectual abilities, not gender or sexual orientation.",,,,,,,,,,,,,,,,,0,21,21,21,677.2903370999848,,,,,,,,,,,,,,,,,,,,,,,,,,,,,,,,,,,,,,,,,,,,,,,,,,,,,,,677.271377499972,677.2903370999848,677.2903370999848,692.1856893999793,1.0,14.890908200002741,,,,VP1,001,2024-11-22_00h51.45.219,Disgust Thang,2024.1.5,None,2024-11-22 00h51.55.520864 +0530,
,,,,,,,23R,The law should make private employers hire minorities if they are qualified because they have been victims of discrimination in the past. ,,,,,,,,,,,,,,,,,0,22,22,22,692.2057467999985,,,,,,,,,,,,,,,,,,,,,,,,,,,,,,,,,,,,,,,,,,,,,,,,,,,,,,,692.1859177999722,692.2057467999985,692.2057467999985,721.1487589999742,1.0,28.938990099995863,,,,VP1,001,2024-11-22_00h51.45.219,Disgust Thang,2024.1.5,None,2024-11-22 00h51.55.520864 +0530,
,,,,,,,24,Certain literature should be banned from city libraries if the librarian feels it is improper or too controversial.,,,,,,,,,,,,,,,,,0,23,23,23,721.1678609999944,,,,,,,,,,,,,,,,,,,,,,,,,,,,,,,,,,,,,,,,,,,,,,,,,,,,,,,721.1489911999961,721.1678609999944,721.1678609999944,729.9642882999906,5.0,8.792400699981954,,,,VP1,001,2024-11-22_00h51.45.219,Disgust Thang,2024.1.5,None,2024-11-22 00h51.55.520864 +0530,
,,,,,,,25R,The government should interfere during conversion from one religion to another.,,,,,,,,,,,,,,,,,0,24,24,24,729.9825804999855,,,,,,,,,,,,,,,,,,,,,,,,,,,,,,,,,,,,,,,,,,,,,,,,,,,,,,,729.9645111999998,729.9825804999855,729.9825804999855,742.7458645000006,4.0,12.75912299999618,,,,VP1,001,2024-11-22_00h51.45.219,Disgust Thang,2024.1.5,None,2024-11-22 00h51.55.520864 +0530,
,,,,,,,26R,The government should spend less on the military and more on education and the environment.,,,,,,,,,,,,,,,,,0,25,25,25,742.7647716999927,,,,,,,,,,,,,,,,,,,,,,,,,,,,,,,,,,,,,,,,,,,,,,,,,,,,,,,742.7460867999762,742.7647716999927,742.7647716999927,747.278831899981,3.0,4.510022600006778,,,,VP1,001,2024-11-22_00h51.45.219,Disgust Thang,2024.1.5,None,2024-11-22 00h51.55.520864 +0530,
,,,,,,,27R,India should not trade with or help any nation that violates human rights.,,,,,,,,,,,,,,,,,0,26,26,26,747.2976296999841,,,,,,,,,,,,,,,,,,,,,,,,,,,,,,,,,,,,,,,,,,,,,,,,,,,,,,,747.2790550999925,747.2976296999841,747.2976296999841,760.77704299998,4.0,13.47534479998285,,,,VP1,001,2024-11-22_00h51.45.219,Disgust Thang,2024.1.5,None,2024-11-22 00h51.55.520864 +0530,
,,,,,,,28,People planning to get married should have a mandatory test for STDs such as AIDS and gonorrhea before a marriage certificate can be issued. ,,,,,,,,,,,,,,,,,0,27,27,27,760.7981191999861,,,,,,,,,,,,,,,,,,,,,,,,,,,,,,,,,,,,,,,,,,,,,,,,,,,,,,,760.7772660999908,760.7981191999861,760.7981191999861,774.608740799973,3.0,13.806212800001958,,,,VP1,001,2024-11-22_00h51.45.219,Disgust Thang,2024.1.5,None,2024-11-22 00h51.55.520864 +0530,
,,,,,,,29,"There are too many lawsuits in the courts, and the courts do not have the time to deal with more severe issues. ",,,,,,,,,,,,,,,,,0,28,28,28,774.6278241999971,,,,,,,,,,,,,,,,,,,,,,,,,,,,,,,,,,,,,,,,,,,,,,,,,,,,,,,774.6089648999914,774.6278241999971,774.6278241999971,784.7572683999897,3.0,10.125360300007742,,,,VP1,001,2024-11-22_00h51.45.219,Disgust Thang,2024.1.5,None,2024-11-22 00h51.55.520864 +0530,
,,,,,,,30R,Nuclear power and nuclear-generating stations should be banned. ,,,,,,,,,,,,,,,,,0,29,29,29,784.7772020999982,,,,,,,,,,,,,,,,,,,,,,,,,,,,,,,,,,,,,,,,,,,,,,,,,,,,,,,784.7574889999814,784.7772020999982,784.7772020999982,789.2733138999902,4.0,4.492192999983672,,,,VP1,001,2024-11-22_00h51.45.219,Disgust Thang,2024.1.5,None,2024-11-22 00h51.55.520864 +0530,
,,,,,,,31R,The death penalty is clearly a form of cruel and unusual punishment and should be banned. ,,,,,,,,,,,,,,,,,0,30,30,30,789.2914886999934,,,,,,,,,,,,,,,,,,,,,,,,,,,,,,,,,,,,,,,,,,,,,,,,,,,,,,,789.2735422999831,789.2914886999934,789.2914886999934,796.4389815999893,4.0,7.143322899995837,,,,VP1,001,2024-11-22_00h51.45.219,Disgust Thang,2024.1.5,None,2024-11-22 00h51.55.520864 +0530,
,,,,,,,32R,Sexual harassment of women in the workplace is a serious problem and should be prosecuted under law,,,,,,,,,,,,,,,,,0,31,31,31,796.4577678999922,,,,,,,,,,,,,,,,,,,,,,,,,,,,,,,,,,,,,,,,,,,,,,,,,,,,,,,796.4392074999923,796.4577678999922,796.4577678999922,809.1542485999817,1.0,12.692303699994227,,,,VP1,001,2024-11-22_00h51.45.219,Disgust Thang,2024.1.5,None,2024-11-22 00h51.55.520864 +0530,
,,,,,,,33R,"The primary function of prisons should be to rehabilitate criminals, not to punish them. ",,,,,,,,,,,,,,,,,0,32,32,32,809.1730966999894,,,,,,,,,,,,,,,,,,,,,,,,,,,,,,,,,,,,,,,,,,,,,,,,,,,,,,,809.1544749999885,809.1730966999894,809.1730966999894,814.653676499991,2.0,5.4762088999850675,,,,VP1,001,2024-11-22_00h51.45.219,Disgust Thang,2024.1.5,None,2024-11-22 00h51.55.520864 +0530,
,,,,,,,34R,The states should abolish criminal penalties for victimless crimes such as gambling and prostitution. ,,,,,,,,,,,,,,,,,0,33,33,33,814.6720230999927,,,,,,,,,,,,,,,,,,,,,,,,,,,,,,,,,,,,,,,,,,,,,,,,,,,,,,,814.6539126999851,814.6720230999927,814.6720230999927,823.5523706999957,4.0,8.875768099998822,,,,VP1,001,2024-11-22_00h51.45.219,Disgust Thang,2024.1.5,None,2024-11-22 00h51.55.520864 +0530,
,,,,,,,35,The CBI should be able to wiretap the phones and read the mail of suspected individuals.,,,,,,,,,,,,,,,,,0,34,34,34,823.5711874999979,,,,,,,,,,,,,,,,,,,,,,,,,,,,,,,,,,,,,,,,,,,,,,,,,,,,,,,823.5525996999932,823.5711874999979,823.5711874999979,838.1336759999976,2.0,14.55848400000832,,,,VP1,001,2024-11-22_00h51.45.219,Disgust Thang,2024.1.5,None,2024-11-22 00h51.55.520864 +0530,
,,,,,,,36R,"The central government must take strong steps to reverse global warming, even if it means losing some jobs. ",,,,,,,,,,,,,,,,,0,35,35,35,838.1531129999785,,,,,,,,,,,,,,,,,,,,,,,,,,,,,,,,,,,,,,,,,,,,,,,,,,,,,,,838.133898,838.1531129999785,838.1531129999785,849.6823302999837,3.0,11.525374599994393,,,,VP1,001,2024-11-22_00h51.45.219,Disgust Thang,2024.1.5,None,2024-11-22 00h51.55.520864 +0530,
,,,,,,,37,Most youth who fall under the reservation scheme today are lazy and do not want to work.,,,,,,,,,,,,,,,,,0,36,36,36,849.701004499977,,,,,,,,,,,,,,,,,,,,,,,,,,,,,,,,,,,,,,,,,,,,,,,,,,,,,,,849.6825578999997,849.701004499977,849.701004499977,863.4471918999916,2.0,13.741895700019086,,,,VP1,001,2024-11-22_00h51.45.219,Disgust Thang,2024.1.5,None,2024-11-22 00h51.55.520864 +0530,
,,,,,,,38,Profanity and sexually oriented material on television should be stopped or penalized by the government. ,,,,,,,,,,,,,,,,,0,37,37,37,863.4662072999927,,,,,,,,,,,,,,,,,,,,,,,,,,,,,,,,,,,,,,,,,,,,,,,,,,,,,,,863.4474137999932,863.4662072999927,863.4662072999927,870.6962865999958,4.0,7.225780599983409,,,,VP1,001,2024-11-22_00h51.45.219,Disgust Thang,2024.1.5,None,2024-11-22 00h51.55.520864 +0530,
,,,,,,,39,"The government must stop the flow of immigrants, both legal and illegal, from Bangladesh.",,,,,,,,,,,,,,,,,0,38,38,38,870.7152049999859,,,,,,,,,,,,,,,,,,,,,,,,,,,,,,,,,,,,,,,,,,,,,,,,,,,,,,,870.6965089999721,870.7152049999859,870.7152049999859,877.8621087999782,5.0,7.143118100007996,,,,VP1,001,2024-11-22_00h51.45.219,Disgust Thang,2024.1.5,None,2024-11-22 00h51.55.520864 +0530,
,,,,,,,40R,There should be sensitization classes for individuals in the LGBTQ+ community in school.,,,,,,,,,,,,,,,,,0,39,39,39,877.8823889999767,,,,,,,,,,,,,,,,,,,,,,,,,,,,,,,,,,,,,,,,,,,,,,,,,,,,,,,877.8623296000005,877.8823889999767,877.8823889999767,903.50871189998,1.0,25.622134999983246,,,,VP1,001,2024-11-22_00h51.45.219,Disgust Thang,2024.1.5,None,2024-11-22 00h51.55.520864 +0530,
,,,,,,,,,,,,,,,,,,,,,,,,,,,,,,,,,,,,,,,,,,,,,,,,,,,,,,,,,,,,,,,,,,,,,,,,,,,,,,,,,,,,,,,,,,903.5088663999923,903.5230748999747,913.5218380999868,VP1,001,2024-11-22_00h51.45.219,Disgust Thang,2024.1.5,None,2024-11-22 00h51.55.520864 +0530,
