dsr1_no,dsr1,dsr2_no,dsr_e,math_q,correct_resp,image_disgust,no,pol_ques,trials_4.thisRepN,trials_4.thisTrialN,trials_4.thisN,trials_4.thisIndex,trials_5.thisRepN,trials_5.thisTrialN,trials_5.thisN,trials_5.thisIndex,trials_3.thisRepN,trials_3.thisTrialN,trials_3.thisN,trials_3.thisIndex,trials.thisRepN,trials.thisTrialN,trials.thisN,trials.thisIndex,trials_2.thisRepN,trials_2.thisTrialN,trials_2.thisN,trials_2.thisIndex,thisRow.t,notes,consent_form.started,text_10.started,button_2.started,consent_form.stopped,button_2.numClicks,button_2.timesOn,button_2.timesOff,Introduction.started,text_3.started,button.started,Introduction.stopped,button.numClicks,button.timesOn,button.timesOff,dsr_a.started,text_6.started,text_7.started,slider_3.started,dsr_a.stopped,slider_3.response,slider_3.rt,dsr_b.started,text_8.started,text_9.started,slider_4.started,dsr_b.stopped,slider_4.response,slider_4.rt,distractor.started,text.started,textbox.started,buton.started,distractor.stopped,textbox.text,buton.numClicks,buton.timesOn,buton.timesOff,encoding.started,polygon.started,image.started,polygon.stopped,slider.started,image.stopped,encoding.stopped,slider.response,slider.rt,instruction.started,text_4.started,Button.started,instruction.stopped,Button.numClicks,Button.timesOn,Button.timesOff,testing.started,text_2.started,slider_2.started,testing.stopped,slider_2.response,slider_2.rt,exit_message.started,text_5.started,exit_message.stopped,participant,session,date,expName,psychopyVersion,frameRate,expStart,
,,,,,,,,,,,,,,,,,,,,,,,,,,,,,,,0.005101600021589547,0.01422330000787042,0.01422330000787042,49.15061579999747,1,[49.14430490002269],[49.14431329999934],,,,,,,,,,,,,,,,,,,,,,,,,,,,,,,,,,,,,,,,,,,,,,,,,,,,,,,,YSY,001,2024-11-22_16h25.00.406,Disgust Thang,2024.1.5,None,2024-11-22 16h25.30.895007 +0530,
,,,,,,,,,,,,,,,,,,,,,,,,,,,,,,,,,,,,,,49.15071159999934,49.165649700007634,49.165649700007634,60.98300130001735,1,[11.830291000020225],[11.830300200002966],,,,,,,,,,,,,,,,,,,,,,,,,,,,,,,,,,,,,,,,,,,,,,,,,YSY,001,2024-11-22_16h25.00.406,Disgust Thang,2024.1.5,None,2024-11-22 16h25.30.895007 +0530,
1r,"I might be willing to try eating monkey meat, under some circumstances",,,,,,,,0,0,0,0,,,,,,,,,,,,,,,,,61.05941730001359,,,,,,,,,,,,,,,,60.99039420002373,61.05941730001359,61.05941730001359,61.05941730001359,61.102281900006346,2.0,0.0826490999897942,,,,,,,,,,,,,,,,,,,,,,,,,,,,,,,,,,,,,,,,,,YSY,001,2024-11-22_16h25.00.406,Disgust Thang,2024.1.5,None,2024-11-22 16h25.30.895007 +0530,
2,"It would bother me to be in a science class, and to see a human hand preserved in a jar",,,,,,,,0,1,1,1,,,,,,,,,,,,,,,,,61.13253679999616,,,,,,,,,,,,,,,,61.10268400001223,61.13253679999616,61.13253679999616,61.13253679999616,78.5223982000025,1.0,17.390652600006433,,,,,,,,,,,,,,,,,,,,,,,,,,,,,,,,,,,,,,,,,,YSY,001,2024-11-22_16h25.00.406,Disgust Thang,2024.1.5,None,2024-11-22 16h25.30.895007 +0530,
3,It bothers me to hear someone clear a throat full of mucous,,,,,,,,0,2,2,2,,,,,,,,,,,,,,,,,78.5492915000068,,,,,,,,,,,,,,,,78.52270200001658,78.5492915000068,78.5492915000068,78.5492915000068,85.94329250001465,2.0,7.39135580000584,,,,,,,,,,,,,,,,,,,,,,,,,,,,,,,,,,,,,,,,,,YSY,001,2024-11-22_16h25.00.406,Disgust Thang,2024.1.5,None,2024-11-22 16h25.30.895007 +0530,
4,I never let any part of my body touch the toilet seat in public restrooms. ,,,,,,,,0,3,3,3,,,,,,,,,,,,,,,,,85.97408970000106,,,,,,,,,,,,,,,,85.94363890000386,85.97408970000106,85.97408970000106,85.97408970000106,91.11482200000319,4.0,5.143112100020517,,,,,,,,,,,,,,,,,,,,,,,,,,,,,,,,,,,,,,,,,,YSY,001,2024-11-22_16h25.00.406,Disgust Thang,2024.1.5,None,2024-11-22 16h25.30.895007 +0530,
5,I would go out of my way to avoid walking through a graveyard. ,,,,,,,,0,4,4,4,,,,,,,,,,,,,,,,,91.14264350000303,,,,,,,,,,,,,,,,91.11511480002082,91.14264350000303,91.14264350000303,91.14264350000303,100.55812490000972,3.0,9.416991900012363,,,,,,,,,,,,,,,,,,,,,,,,,,,,,,,,,,,,,,,,,,YSY,001,2024-11-22_16h25.00.406,Disgust Thang,2024.1.5,None,2024-11-22 16h25.30.895007 +0530,
6r,Seeing a cockroach in someone else's house doesn't bother me. ,,,,,,,,0,5,5,5,,,,,,,,,,,,,,,,,100.58840629999759,,,,,,,,,,,,,,,,100.55841460000374,100.58840629999759,100.58840629999759,100.58840629999759,216.33426010000403,3.0,115.74358430001303,,,,,,,,,,,,,,,,,,,,,,,,,,,,,,,,,,,,,,,,,,YSY,001,2024-11-22_16h25.00.406,Disgust Thang,2024.1.5,None,2024-11-22 16h25.30.895007 +0530,
7,It would bother me tremendously to touch a dead body. ,,,,,,,,0,6,6,6,,,,,,,,,,,,,,,,,216.36230940002133,,,,,,,,,,,,,,,,216.3345735000039,216.36230940002133,216.36230940002133,216.36230940002133,220.51936580002075,3.0,4.157666399987647,,,,,,,,,,,,,,,,,,,,,,,,,,,,,,,,,,,,,,,,,,YSY,001,2024-11-22_16h25.00.406,Disgust Thang,2024.1.5,None,2024-11-22 16h25.30.895007 +0530,
8,"If I see someone vomit, it makes me sick to my stomach. ",,,,,,,,0,7,7,7,,,,,,,,,,,,,,,,,220.54678880001302,,,,,,,,,,,,,,,,220.5196526000218,220.54678880001302,220.54678880001302,220.54678880001302,227.64440020002075,3.0,7.098810399998911,,,,,,,,,,,,,,,,,,,,,,,,,,,,,,,,,,,,,,,,,,YSY,001,2024-11-22_16h25.00.406,Disgust Thang,2024.1.5,None,2024-11-22 16h25.30.895007 +0530,
9,I probably would not go to my favorite restaurant if I found out that the cook had a cold. ,,,,,,,,0,8,8,8,,,,,,,,,,,,,,,,,227.67203480002354,,,,,,,,,,,,,,,,227.6447068999987,227.67203480002354,227.67203480002354,227.67203480002354,277.0759986000194,3.0,49.404062399989925,,,,,,,,,,,,,,,,,,,,,,,,,,,,,,,,,,,,,,,,,,YSY,001,2024-11-22_16h25.00.406,Disgust Thang,2024.1.5,None,2024-11-22 16h25.30.895007 +0530,
10r,"It would not upset me at all to watch a person with a glass eye take the eye 
out of the socket.  ",,,,,,,,0,9,9,9,,,,,,,,,,,,,,,,,277.1054405000177,,,,,,,,,,,,,,,,277.07632340001874,277.1054405000177,277.1054405000177,277.1054405000177,333.9047172999999,3.0,56.79987059999257,,,,,,,,,,,,,,,,,,,,,,,,,,,,,,,,,,,,,,,,,,YSY,001,2024-11-22_16h25.00.406,Disgust Thang,2024.1.5,None,2024-11-22 16h25.30.895007 +0530,
11,It would bother me to see a rat run across my path in a park. ,,,,,,,,0,10,10,10,,,,,,,,,,,,,,,,,333.93178000001353,,,,,,,,,,,,,,,,333.90501320001204,333.93178000001353,333.93178000001353,333.93178000001353,341.5619605999964,3.0,7.629580100008752,,,,,,,,,,,,,,,,,,,,,,,,,,,,,,,,,,,,,,,,,,YSY,001,2024-11-22_16h25.00.406,Disgust Thang,2024.1.5,None,2024-11-22 16h25.30.895007 +0530,
12d,I would rather eat a piece of fruit than a piece of paper ,,,,,,,,0,11,11,11,,,,,,,,,,,,,,,,,341.58968500001356,,,,,,,,,,,,,,,,341.5622909000085,341.58968500001356,341.58968500001356,341.58968500001356,358.0445959000208,4.0,16.45592169999145,,,,,,,,,,,,,,,,,,,,,,,,,,,,,,,,,,,,,,,,,,YSY,001,2024-11-22_16h25.00.406,Disgust Thang,2024.1.5,None,2024-11-22 16h25.30.895007 +0530,
13,"Even if I was hungry, I would not drink a bowl of my favorite soup if it had been
stirred by a used but thoroughly washed flyswatter. ",,,,,,,,0,12,12,12,,,,,,,,,,,,,,,,,358.07503150001867,,,,,,,,,,,,,,,,358.044876400003,358.07503150001867,358.07503150001867,358.07503150001867,474.1289743000234,1.0,116.05446529999608,,,,,,,,,,,,,,,,,,,,,,,,,,,,,,,,,,,,,,,,,,YSY,001,2024-11-22_16h25.00.406,Disgust Thang,2024.1.5,None,2024-11-22 16h25.30.895007 +0530,
14,"It would bother me to sleep in a nice hotel room if I knew that a man had died of a
heart attack in that room the night before. ",,,,,,,,0,13,13,13,,,,,,,,,,,,,,,,,474.15722809999716,,,,,,,,,,,,,,,,474.1292698000034,474.15722809999716,474.15722809999716,474.15722809999716,482.2948887000093,0.0,8.138469700003043,,,,,,,,,,,,,,,,,,,,,,,,,,,,,,,,,,,,,,,,,,YSY,001,2024-11-22_16h25.00.406,Disgust Thang,2024.1.5,None,2024-11-22 16h25.30.895007 +0530,
,,15,You see maggots on a piece of meat in an outdoor garbage pail. ,,,,,,,,,,0,0,0,0,,,,,,,,,,,,,482.33104900000035,,,,,,,,,,,,,,,,,,,,,,,482.3010733000119,482.33104900000035,482.33104900000035,482.33104900000035,498.1338151000091,3.0,15.80623220000416,,,,,,,,,,,,,,,,,,,,,,,,,,,,,,,,,,,YSY,001,2024-11-22_16h25.00.406,Disgust Thang,2024.1.5,None,2024-11-22 16h25.30.895007 +0530,
,,16d,You see a person eating an apple with a knife and fork,,,,,,,,,,0,1,1,1,,,,,,,,,,,,,498.1607311000116,,,,,,,,,,,,,,,,,,,,,,,498.1341869000171,498.1607311000116,498.1607311000116,498.1607311000116,507.1102782000089,1.0,8.949109200009843,,,,,,,,,,,,,,,,,,,,,,,,,,,,,,,,,,,YSY,001,2024-11-22_16h25.00.406,Disgust Thang,2024.1.5,None,2024-11-22 16h25.30.895007 +0530,
,,17,"While you are walking through a tunnel under a railroad track, you smell urine. ",,,,,,,,,,0,2,2,2,,,,,,,,,,,,,507.1395737999992,,,,,,,,,,,,,,,,,,,,,,,507.1105678000022,507.1395737999992,507.1395737999992,507.1395737999992,517.0267303000146,1.0,9.888352400012081,,,,,,,,,,,,,,,,,,,,,,,,,,,,,,,,,,,YSY,001,2024-11-22_16h25.00.406,Disgust Thang,2024.1.5,None,2024-11-22 16h25.30.895007 +0530,
,,18,"You take a sip of soda, and then realize that you drank from the glass that an
 		acquaintance of yours had been drinking from",,,,,,,,,,0,3,3,3,,,,,,,,,,,,,517.0584873000043,,,,,,,,,,,,,,,,,,,,,,,517.0270147999981,517.0584873000043,517.0584873000043,517.0584873000043,530.0455443999963,0.0,12.98714410001412,,,,,,,,,,,,,,,,,,,,,,,,,,,,,,,,,,,YSY,001,2024-11-22_16h25.00.406,Disgust Thang,2024.1.5,None,2024-11-22 16h25.30.895007 +0530,
,,19,"Your friend's pet cat dies, and you have to pick up the dead body with your bare hands.  ",,,,,,,,,,0,4,4,4,,,,,,,,,,,,,530.0737327999959,,,,,,,,,,,,,,,,,,,,,,,530.0458882999956,530.0737327999959,530.0737327999959,530.0737327999959,543.0212583999964,0.0,12.945935499999905,,,,,,,,,,,,,,,,,,,,,,,,,,,,,,,,,,,YSY,001,2024-11-22_16h25.00.406,Disgust Thang,2024.1.5,None,2024-11-22 16h25.30.895007 +0530,
,,20,"You see someone put ketchup on vanilla ice cream, and eat it. ",,,,,,,,,,0,5,5,5,,,,,,,,,,,,,543.0484969000099,,,,,,,,,,,,,,,,,,,,,,,543.021622100001,543.0484969000099,543.0484969000099,543.0484969000099,549.4349869000143,4.0,6.387334400002146,,,,,,,,,,,,,,,,,,,,,,,,,,,,,,,,,,,YSY,001,2024-11-22_16h25.00.406,Disgust Thang,2024.1.5,None,2024-11-22 16h25.30.895007 +0530,
,,21,You see a man with his intestines exposed after an accident. ,,,,,,,,,,0,6,6,6,,,,,,,,,,,,,549.4634359000192,,,,,,,,,,,,,,,,,,,,,,,549.4352952000045,549.4634359000192,549.4634359000192,549.4634359000192,554.3720459000033,3.0,4.909675000002608,,,,,,,,,,,,,,,,,,,,,,,,,,,,,,,,,,,YSY,001,2024-11-22_16h25.00.406,Disgust Thang,2024.1.5,None,2024-11-22 16h25.30.895007 +0530,
,,22,You discover that a friend of yours changes underwear only once a week. ,,,,,,,,,,0,7,7,7,,,,,,,,,,,,,554.4034578000137,,,,,,,,,,,,,,,,,,,,,,,554.3723599000077,554.4034578000137,554.4034578000137,554.4034578000137,559.2757430000056,3.0,4.876251299981959,,,,,,,,,,,,,,,,,,,,,,,,,,,,,,,,,,,YSY,001,2024-11-22_16h25.00.406,Disgust Thang,2024.1.5,None,2024-11-22 16h25.30.895007 +0530,
,,23,A friend offers you a piece of chocolate shaped like dog doo. ,,,,,,,,,,0,8,8,8,,,,,,,,,,,,,559.3053873000026,,,,,,,,,,,,,,,,,,,,,,,559.276083100005,559.3053873000026,559.3053873000026,559.3053873000026,570.0744369000022,3.0,10.769390900008148,,,,,,,,,,,,,,,,,,,,,,,,,,,,,,,,,,,YSY,001,2024-11-22_16h25.00.406,Disgust Thang,2024.1.5,None,2024-11-22 16h25.30.895007 +0530,
,,24,You accidentally touch the ashes of a person who has been cremated. ,,,,,,,,,,0,9,9,9,,,,,,,,,,,,,570.10216390001,,,,,,,,,,,,,,,,,,,,,,,570.074729200016,570.10216390001,570.10216390001,570.10216390001,584.063048800017,3.0,13.961895199987339,,,,,,,,,,,,,,,,,,,,,,,,,,,,,,,,,,,YSY,001,2024-11-22_16h25.00.406,Disgust Thang,2024.1.5,None,2024-11-22 16h25.30.895007 +0530,
,,25,You are about to drink a glass of milk when you smell that it is spoiled. ,,,,,,,,,,0,10,10,10,,,,,,,,,,,,,584.0920458000037,,,,,,,,,,,,,,,,,,,,,,,584.063355500024,584.0920458000037,584.0920458000037,584.0920458000037,600.4547345000028,3.0,16.364285999996355,,,,,,,,,,,,,,,,,,,,,,,,,,,,,,,,,,,YSY,001,2024-11-22_16h25.00.406,Disgust Thang,2024.1.5,None,2024-11-22 16h25.30.895007 +0530,
,,26,"As part of a sex education class, you are required to inflate a new unlubricated
		condom, using your mouth. ",,,,,,,,,,0,11,11,11,,,,,,,,,,,,,600.4830786999955,,,,,,,,,,,,,,,,,,,,,,,600.4550399,600.4830786999955,600.4830786999955,600.4830786999955,608.4812709999969,0.0,7.9989084000117145,,,,,,,,,,,,,,,,,,,,,,,,,,,,,,,,,,,YSY,001,2024-11-22_16h25.00.406,Disgust Thang,2024.1.5,None,2024-11-22 16h25.30.895007 +0530,
,,27,"You are walking barefoot on concrete, and you step on an earthworm. ",,,,,,,,,,0,12,12,12,,,,,,,,,,,,,608.5089205999975,,,,,,,,,,,,,,,,,,,,,,,608.4815500999975,608.5089205999975,608.5089205999975,608.5089205999975,614.0348737000022,0.0,5.526592800015351,,,,,,,,,,,,,,,,,,,,,,,,,,,,,,,,,,,YSY,001,2024-11-22_16h25.00.406,Disgust Thang,2024.1.5,None,2024-11-22 16h25.30.895007 +0530,
,,,,15-7,8,,,,,,,,,,,,0,0,0,0,,,,,,,,,614.0651043000107,,,,,,,,,,,,,,,,,,,,,,,,,,,,,,614.0405508000113,614.0651043000107,614.0651043000107,614.0651043000107,621.9765975000046,"8
",1,[7.929749099974288],[7.929759499995271],,,,,,,,,,,,,,,,,,,,,,,,,,YSY,001,2024-11-22_16h25.00.406,Disgust Thang,2024.1.5,None,2024-11-22 16h25.30.895007 +0530,
,,,,5*7,35,,,,,,,,,,,,0,1,1,1,,,,,,,,,621.9928206000186,,,,,,,,,,,,,,,,,,,,,,,,,,,,,,621.9772836000193,621.9928206000186,621.9928206000186,621.9928206000186,626.8090535000083,35,1,[4.82697090000147],[4.82697970001027],,,,,,,,,,,,,,,,,,,,,,,,,,YSY,001,2024-11-22_16h25.00.406,Disgust Thang,2024.1.5,None,2024-11-22 16h25.30.895007 +0530,
,,,,42/7,6,,,,,,,,,,,,0,2,2,2,,,,,,,,,626.8276624999999,,,,,,,,,,,,,,,,,,,,,,,,,,,,,,626.809567600023,626.8276624999999,626.8276624999999,626.8276624999999,633.825182200002,6,1,[7.008660299994517],[7.008668800001033],,,,,,,,,,,,,,,,,,,,,,,,,,YSY,001,2024-11-22_16h25.00.406,Disgust Thang,2024.1.5,None,2024-11-22 16h25.30.895007 +0530,
,,,,51-17,34,,,,,,,,,,,,0,3,3,3,,,,,,,,,633.8402623000147,,,,,,,,,,,,,,,,,,,,,,,,,,,,,,633.8257616000192,633.8402623000147,633.8402623000147,633.8402623000147,647.2903404000099,34,1,[13.46137799997814],[13.461386199982371],,,,,,,,,,,,,,,,,,,,,,,,,,YSY,001,2024-11-22_16h25.00.406,Disgust Thang,2024.1.5,None,2024-11-22 16h25.30.895007 +0530,
,,,,19*8,152,,,,,,,,,,,,0,4,4,4,,,,,,,,,647.3084652000107,,,,,,,,,,,,,,,,,,,,,,,,,,,,,,647.2910409000178,647.3084652000107,647.3084652000107,647.3084652000107,669.2046461999998,152,1,[21.90726020000875],[21.90727599998354],,,,,,,,,,,,,,,,,,,,,,,,,,YSY,001,2024-11-22_16h25.00.406,Disgust Thang,2024.1.5,None,2024-11-22 16h25.30.895007 +0530,
,,,,6* (25+3),168,,,,,,,,,,,,0,5,5,5,,,,,,,,,669.2235411000147,,,,,,,,,,,,,,,,,,,,,,,,,,,,,,669.205122000014,669.2235411000147,669.2235411000147,669.2235411000147,700.5333437000227,168,1,[31.320713699999033],[31.320788699988043],,,,,,,,,,,,,,,,,,,,,,,,,,YSY,001,2024-11-22_16h25.00.406,Disgust Thang,2024.1.5,None,2024-11-22 16h25.30.895007 +0530,
,,,,,,images/1034_food.png,,,,,,,,,,,,,,,0,0,0,1,,,,,700.5781317000219,,,,,,,,,,,,,,,,,,,,,,,,,,,,,,,,,,,,,,,700.5388839000079,700.5781317000219,701.561373900011,701.5677175000019,708.5528063999955,711.5636321000056,713.8111322000041,1.9814814814814814,13.223374000022886,,,,,,,,,,,,,,,,,YSY,001,2024-11-22_16h25.00.406,Disgust Thang,2024.1.5,None,2024-11-22 16h25.30.895007 +0530,
,,,,,,images/1253_hygiene.png,,,,,,,,,,,,,,,0,1,1,8,,,,,713.8501980000001,,,,,,,,,,,,,,,,,,,,,,,,,,,,,,,,,,,,,,,713.8115317000193,713.8501980000001,714.8148020000081,714.8641384000075,721.8148908000148,,722.9585400000215,1.988888888888889,9.09716470001149,,,,,,,,,,,,,,,,,YSY,001,2024-11-22_16h25.00.406,Disgust Thang,2024.1.5,None,2024-11-22 16h25.30.895007 +0530,
,,,,,,images/1182_injuries_infections.png,,,,,,,,,,,,,,,0,2,2,5,,,,,722.9886732000159,,,,,,,,,,,,,,,,,,,,,,,,,,,,,,,,,,,,,,,722.9588837000192,722.9886732000159,723.9633127000125,723.9962624000036,730.9636414000124,,733.2760858999973,3.0037037037037035,10.276120499998797,,,,,,,,,,,,,,,,,YSY,001,2024-11-22_16h25.00.406,Disgust Thang,2024.1.5,None,2024-11-22 16h25.30.895007 +0530,
,,,,,,images/1171_injuries_infections.png,,,,,,,,,,,,,,,0,3,3,4,,,,,733.3114386000088,,,,,,,,,,,,,,,,,,,,,,,,,,,,,,,,,,,,,,,733.276405600016,733.3114386000088,734.2788128000102,734.3115858999954,741.2782128000108,,742.2950003000151,1.9481481481481482,8.973581600002944,,,,,,,,,,,,,,,,,YSY,001,2024-11-22_16h25.00.406,Disgust Thang,2024.1.5,None,2024-11-22 16h25.30.895007 +0530,
,,,,,,images/1118_body products.png,,,,,,,,,,,,,,,0,4,4,3,,,,,742.32629550001,,,,,,,,,,,,,,,,,,,,,,,,,,,,,,,,,,,,,,,742.2952976000088,742.32629550001,743.3109509000205,743.3270282000012,750.3107340999995,,751.454392100015,1.9962962962962962,9.118093800003408,,,,,,,,,,,,,,,,,YSY,001,2024-11-22_16h25.00.406,Disgust Thang,2024.1.5,None,2024-11-22 16h25.30.895007 +0530,
,,,,,,images/1110_body products.png,,,,,,,,,,,,,,,0,5,5,2,,,,,751.487163200014,,,,,,,,,,,,,,,,,,,,,,,,,,,,,,,,,,,,,,,751.4546708000125,751.487163200014,752.4598278000194,752.4926755000197,759.4606528000149,,761.1862169000087,1.011111111111111,9.688762199977646,,,,,,,,,,,,,,,,,YSY,001,2024-11-22_16h25.00.406,Disgust Thang,2024.1.5,None,2024-11-22 16h25.30.895007 +0530,
,,,,,,images/1033_food.png,,,,,,,,,,,,,,,0,6,6,0,,,,,761.2142564000096,,,,,,,,,,,,,,,,,,,,,,,,,,,,,,,,,,,,,,,761.1864903999958,761.2142564000096,762.1916600000113,762.2246691000182,769.1920681000047,,770.223308900022,1.025925925925926,8.9979364000028,,,,,,,,,,,,,,,,,YSY,001,2024-11-22_16h25.00.406,Disgust Thang,2024.1.5,None,2024-11-22 16h25.30.895007 +0530,
,,,,,,images/1201_death.png,,,,,,,,,,,,,,,0,7,7,6,,,,,770.2636802000052,,,,,,,,,,,,,,,,,,,,,,,,,,,,,,,,,,,,,,,770.2236139000161,770.2636802000052,771.2240755000093,771.273505500023,778.2234242999984,781.23801250002,782.0061602000205,2.0074074074074075,11.73252090002643,,,,,,,,,,,,,,,,,YSY,001,2024-11-22_16h25.00.406,Disgust Thang,2024.1.5,None,2024-11-22 16h25.30.895007 +0530,
,,,,,,images/1218_death.png,,,,,,,,,,,,,,,0,8,8,7,,,,,782.0380248000147,,,,,,,,,,,,,,,,,,,,,,,,,,,,,,,,,,,,,,,782.006443100021,782.0380248000147,783.0228684000031,783.0387582000112,790.0225243000023,,791.5508795000205,1.0222222222222221,9.50191360001918,,,,,,,,,,,,,,,,,YSY,001,2024-11-22_16h25.00.406,Disgust Thang,2024.1.5,None,2024-11-22 16h25.30.895007 +0530,
,,,,,,,,,,,,,,,,,,,,,,,,,,,,,,,,,,,,,,,,,,,,,,,,,,,,,,,,,,,,,,,,,,,,,,,,,,,,,791.55108200002,791.5594222000218,791.5594222000218,804.7869787999953,1,[13.234786799992435],[13.234797899989644],,,,,,,,,,YSY,001,2024-11-22_16h25.00.406,Disgust Thang,2024.1.5,None,2024-11-22 16h25.30.895007 +0530,
,,,,,,,1R,The government should pass a Constitutional amendment that would make it illegal to discriminate against anyone in any situation based on sexual orientation.,,,,,,,,,,,,,,,,,0,0,0,0,804.843532400002,,,,,,,,,,,,,,,,,,,,,,,,,,,,,,,,,,,,,,,,,,,,,,,,,,,,,,,804.7975307000161,804.843532400002,804.843532400002,804.8930469000188,3.0,0.056793399999151006,,,,YSY,001,2024-11-22_16h25.00.406,Disgust Thang,2024.1.5,None,2024-11-22 16h25.30.895007 +0530,
,,,,,,,2R,"The national government should establish a centrally funded medical program so that all persons, regardless of means, have access to medical care.",,,,,,,,,,,,,,,,,0,1,1,1,804.9256218000082,,,,,,,,,,,,,,,,,,,,,,,,,,,,,,,,,,,,,,,,,,,,,,,,,,,,,,,804.8934887000069,804.9256218000082,804.9256218000082,817.2368400999985,2.0,12.312588599976152,,,,YSY,001,2024-11-22_16h25.00.406,Disgust Thang,2024.1.5,None,2024-11-22 16h25.30.895007 +0530,
,,,,,,,3,It should be legal and constitutional to say a prayer at the beginning of assemblies in public schools.,,,,,,,,,,,,,,,,,0,2,2,2,817.2651205000002,,,,,,,,,,,,,,,,,,,,,,,,,,,,,,,,,,,,,,,,,,,,,,,,,,,,,,,817.2371565000212,817.2651205000002,817.2651205000002,833.2783522999962,4.0,16.01365390000865,,,,YSY,001,2024-11-22_16h25.00.406,Disgust Thang,2024.1.5,None,2024-11-22 16h25.30.895007 +0530,
,,,,,,,4R,Persons should be allowed to join and serve in the military regardless of their sexual preference as long as their behavior meets strict military standards.,,,,,,,,,,,,,,,,,0,3,3,3,833.30778990002,,,,,,,,,,,,,,,,,,,,,,,,,,,,,,,,,,,,,,,,,,,,,,,,,,,,,,,833.2787040999974,833.30778990002,833.30778990002,841.3105552000052,1.0,8.002651199989486,,,,YSY,001,2024-11-22_16h25.00.406,Disgust Thang,2024.1.5,None,2024-11-22 16h25.30.895007 +0530,
,,,,,,,5R,A person should be able to use and grow small quantities of marijuana in the privacy of his or her own home with no legal consequences.,,,,,,,,,,,,,,,,,0,4,4,4,841.3400732000009,,,,,,,,,,,,,,,,,,,,,,,,,,,,,,,,,,,,,,,,,,,,,,,,,,,,,,,841.3109352000174,841.3400732000009,841.3400732000009,850.0966146000137,1.0,8.757587300002342,,,,YSY,001,2024-11-22_16h25.00.406,Disgust Thang,2024.1.5,None,2024-11-22 16h25.30.895007 +0530,
,,,,,,,6,"Persons receiving the death penalty should be limited in their number of appeals, and the death sentence should be carried out in a shorter time period than it is now.",,,,,,,,,,,,,,,,,0,5,5,5,850.1256251000159,,,,,,,,,,,,,,,,,,,,,,,,,,,,,,,,,,,,,,,,,,,,,,,,,,,,,,,850.0969121000089,850.1256251000159,850.1256251000159,865.4090103000053,3.0,15.283422100008465,,,,YSY,001,2024-11-22_16h25.00.406,Disgust Thang,2024.1.5,None,2024-11-22 16h25.30.895007 +0530,
,,,,,,,7,The government should reverse its decision on abortion and make it more challenging to have an abortion except in special cases such as rape and incest. ,,,,,,,,,,,,,,,,,0,6,6,6,865.4373456000176,,,,,,,,,,,,,,,,,,,,,,,,,,,,,,,,,,,,,,,,,,,,,,,,,,,,,,,865.409330800001,865.4373456000176,865.4373456000176,876.1024381000025,5.0,10.665375200012932,,,,YSY,001,2024-11-22_16h25.00.406,Disgust Thang,2024.1.5,None,2024-11-22 16h25.30.895007 +0530,
,,,,,,,8,India should require one year of military service for all able-bodied people.,,,,,,,,,,,,,,,,,0,7,7,7,876.1297818000021,,,,,,,,,,,,,,,,,,,,,,,,,,,,,,,,,,,,,,,,,,,,,,,,,,,,,,,876.1027328000055,876.1297818000021,876.1297818000021,888.2671199000033,2.0,12.137278000009246,,,,YSY,001,2024-11-22_16h25.00.406,Disgust Thang,2024.1.5,None,2024-11-22 16h25.30.895007 +0530,
,,,,,,,9,"Parents should be able to send their children to any school they choose, and tax money should be used to support the schools that parents choose.",,,,,,,,,,,,,,,,,0,8,8,8,888.3007442000089,,,,,,,,,,,,,,,,,,,,,,,,,,,,,,,,,,,,,,,,,,,,,,,,,,,,,,,888.2674350000161,888.3007442000089,888.3007442000089,897.888360300014,4.0,9.592055899993284,,,,YSY,001,2024-11-22_16h25.00.406,Disgust Thang,2024.1.5,None,2024-11-22 16h25.30.895007 +0530,
,,,,,,,10,Police should be able to confiscate any materials that are deemed to be obscene or pornographic. ,,,,,,,,,,,,,,,,,0,9,9,9,897.9156057000218,,,,,,,,,,,,,,,,,,,,,,,,,,,,,,,,,,,,,,,,,,,,,,,,,,,,,,,897.8886715999979,897.9156057000218,897.9156057000218,917.5759057000105,3.0,19.660995000012917,,,,YSY,001,2024-11-22_16h25.00.406,Disgust Thang,2024.1.5,None,2024-11-22 16h25.30.895007 +0530,
,,,,,,,11,The central government should be required to have a balanced budget that does not spend more than the money that comes in from taxes,,,,,,,,,,,,,,,,,0,10,10,10,917.6051443000033,,,,,,,,,,,,,,,,,,,,,,,,,,,,,,,,,,,,,,,,,,,,,,,,,,,,,,,917.5762339000066,917.6051443000033,917.6051443000033,967.199535599997,3.0,49.59565460000886,,,,YSY,001,2024-11-22_16h25.00.406,Disgust Thang,2024.1.5,None,2024-11-22 16h25.30.895007 +0530,
,,,,,,,12R, Laws that limit the sale of fireworks and other explosive materials that are not intended for legitimate cultural or religious purposes should be passed.,,,,,,,,,,,,,,,,,0,11,11,11,967.2323514000163,,,,,,,,,,,,,,,,,,,,,,,,,,,,,,,,,,,,,,,,,,,,,,,,,,,,,,,967.1998520000197,967.2323514000163,967.2323514000163,979.6325104999996,2.0,12.400873400009004,,,,YSY,001,2024-11-22_16h25.00.406,Disgust Thang,2024.1.5,None,2024-11-22 16h25.30.895007 +0530,
,,,,,,,13R,Sex education should be in taught all public schools and all students should be required to take the class unless exempted by parents. ,,,,,,,,,,,,,,,,,0,12,12,12,979.6605955999985,,,,,,,,,,,,,,,,,,,,,,,,,,,,,,,,,,,,,,,,,,,,,,,,,,,,,,,979.6327901000041,979.6605955999985,979.6605955999985,1021.0422074000235,3.0,41.38198450001073,,,,YSY,001,2024-11-22_16h25.00.406,Disgust Thang,2024.1.5,None,2024-11-22 16h25.30.895007 +0530,
,,,,,,,14,Reservation system should be abolished in India. ,,,,,,,,,,,,,,,,,0,13,13,13,1021.0731875000056,,,,,,,,,,,,,,,,,,,,,,,,,,,,,,,,,,,,,,,,,,,,,,,,,,,,,,,1021.0425445000001,1021.0731875000056,1021.0731875000056,1032.4121871000098,3.0,11.339546300005168,,,,YSY,001,2024-11-22_16h25.00.406,Disgust Thang,2024.1.5,None,2024-11-22 16h25.30.895007 +0530,
,,,,,,,15,"The Prime Minister, without permission from the President, should be able to use the armed forces and call for an emergency in possible combat areas for as long as he/she deems necessary. ",,,,,,,,,,,,,,,,,0,14,14,14,1032.445547500014,,,,,,,,,,,,,,,,,,,,,,,,,,,,,,,,,,,,,,,,,,,,,,,,,,,,,,,1032.4125015000172,1032.445547500014,1032.445547500014,1041.0766965000075,2.0,8.631963199994061,,,,YSY,001,2024-11-22_16h25.00.406,Disgust Thang,2024.1.5,None,2024-11-22 16h25.30.895007 +0530,
,,,,,,,16R,"Laws should be passed to make it legal for public employees such as police, firemen, teachers, and garbage collectors to go on strike. ",,,,,,,,,,,,,,,,,0,15,15,15,1041.1055062000232,,,,,,,,,,,,,,,,,,,,,,,,,,,,,,,,,,,,,,,,,,,,,,,,,,,,,,,1041.076998900011,1041.1055062000232,1041.1055062000232,1070.3172788000084,2.0,29.21172629998182,,,,YSY,001,2024-11-22_16h25.00.406,Disgust Thang,2024.1.5,None,2024-11-22 16h25.30.895007 +0530,
,,,,,,,17,Public schools should be required to teach the world's creation as written in the Bhagavad Gita in all classes that teach evolution theory.,,,,,,,,,,,,,,,,,0,16,16,16,1070.3495889000187,,,,,,,,,,,,,,,,,,,,,,,,,,,,,,,,,,,,,,,,,,,,,,,,,,,,,,,1070.3176204000192,1070.3495889000187,1070.3495889000187,1083.4369529999967,4.0,13.085559800005285,,,,YSY,001,2024-11-22_16h25.00.406,Disgust Thang,2024.1.5,None,2024-11-22 16h25.30.895007 +0530,
,,,,,,,18,"The government should mandate family planning counseling and reversible sterilization for low-income, unmarried women with three or more children. ",,,,,,,,,,,,,,,,,0,17,17,17,1083.4724859000125,,,,,,,,,,,,,,,,,,,,,,,,,,,,,,,,,,,,,,,,,,,,,,,,,,,,,,,1083.4372936,1083.4724859000125,1083.4724859000125,1090.4047050000227,2.0,6.933954000007361,,,,YSY,001,2024-11-22_16h25.00.406,Disgust Thang,2024.1.5,None,2024-11-22 16h25.30.895007 +0530,
,,,,,,,19R,"Birth control information, non-prescription contraceptive devices, and the morning-after pill should be made available on college campuses.",,,,,,,,,,,,,,,,,0,18,18,18,1090.4344334000198,,,,,,,,,,,,,,,,,,,,,,,,,,,,,,,,,,,,,,,,,,,,,,,,,,,,,,,1090.4050330000173,1090.4344334000198,1090.4344334000198,1098.799585700006,2.0,8.36593550001271,,,,YSY,001,2024-11-22_16h25.00.406,Disgust Thang,2024.1.5,None,2024-11-22 16h25.30.895007 +0530,
,,,,,,,20,"Evidence gathered by the police, even if an honest mistake was made in getting a warrant, should be used to help prosecute suspected criminals. ",,,,,,,,,,,,,,,,,0,19,19,19,1098.8298116000078,,,,,,,,,,,,,,,,,,,,,,,,,,,,,,,,,,,,,,,,,,,,,,,,,,,,,,,1098.799883300002,1098.8298116000078,1098.8298116000078,1132.4634380000061,2.0,33.6362916000071,,,,YSY,001,2024-11-22_16h25.00.406,Disgust Thang,2024.1.5,None,2024-11-22 16h25.30.895007 +0530,
,,,,,,,21,Inter-religious marriages should be abolished.,,,,,,,,,,,,,,,,,0,20,20,20,1132.4902584000083,,,,,,,,,,,,,,,,,,,,,,,,,,,,,,,,,,,,,,,,,,,,,,,,,,,,,,,1132.4637715000135,1132.4902584000083,1132.4902584000083,1138.3718955000222,4.0,5.883122100000037,,,,YSY,001,2024-11-22_16h25.00.406,Disgust Thang,2024.1.5,None,2024-11-22 16h25.30.895007 +0530,
,,,,,,,22R,"Requirements for any military duty, including combat, should be based on physical, emotional, and intellectual abilities, not gender or sexual orientation.",,,,,,,,,,,,,,,,,0,21,21,21,1138.4028570000082,,,,,,,,,,,,,,,,,,,,,,,,,,,,,,,,,,,,,,,,,,,,,,,,,,,,,,,1138.3722772000183,1138.4028570000082,1138.4028570000082,1147.1735386000073,3.0,8.772965100011788,,,,YSY,001,2024-11-22_16h25.00.406,Disgust Thang,2024.1.5,None,2024-11-22 16h25.30.895007 +0530,
,,,,,,,23R,The law should make private employers hire minorities if they are qualified because they have been victims of discrimination in the past. ,,,,,,,,,,,,,,,,,0,22,22,22,1147.2021795000182,,,,,,,,,,,,,,,,,,,,,,,,,,,,,,,,,,,,,,,,,,,,,,,,,,,,,,,1147.173851200001,1147.2021795000182,1147.2021795000182,1179.8452352000168,3.0,32.63929459999781,,,,YSY,001,2024-11-22_16h25.00.406,Disgust Thang,2024.1.5,None,2024-11-22 16h25.30.895007 +0530,
,,,,,,,24,Certain literature should be banned from city libraries if the librarian feels it is improper or too controversial.,,,,,,,,,,,,,,,,,0,23,23,23,1179.8748229000194,,,,,,,,,,,,,,,,,,,,,,,,,,,,,,,,,,,,,,,,,,,,,,,,,,,,,,,1179.8455453000206,1179.8748229000194,1179.8748229000194,1265.864266700024,3.0,85.99012070000754,,,,YSY,001,2024-11-22_16h25.00.406,Disgust Thang,2024.1.5,None,2024-11-22 16h25.30.895007 +0530,
,,,,,,,25R,The government should interfere during conversion from one religion to another.,,,,,,,,,,,,,,,,,0,24,24,24,1265.8912088000216,,,,,,,,,,,,,,,,,,,,,,,,,,,,,,,,,,,,,,,,,,,,,,,,,,,,,,,1265.8645973000093,1265.8912088000216,1265.8912088000216,1270.5070605000074,2.0,4.616063499997836,,,,YSY,001,2024-11-22_16h25.00.406,Disgust Thang,2024.1.5,None,2024-11-22 16h25.30.895007 +0530,
,,,,,,,26R,The government should spend less on the military and more on education and the environment.,,,,,,,,,,,,,,,,,0,25,25,25,1270.5349582000053,,,,,,,,,,,,,,,,,,,,,,,,,,,,,,,,,,,,,,,,,,,,,,,,,,,,,,,1270.507352900022,1270.5349582000053,1270.5349582000053,1279.16393900002,3.0,8.62956739999936,,,,YSY,001,2024-11-22_16h25.00.406,Disgust Thang,2024.1.5,None,2024-11-22 16h25.30.895007 +0530,
,,,,,,,27R,India should not trade with or help any nation that violates human rights.,,,,,,,,,,,,,,,,,0,26,26,26,1279.191627399996,,,,,,,,,,,,,,,,,,,,,,,,,,,,,,,,,,,,,,,,,,,,,,,,,,,,,,,1279.1642551000114,1279.191627399996,1279.191627399996,1307.4689199000131,3.0,28.27759650000371,,,,YSY,001,2024-11-22_16h25.00.406,Disgust Thang,2024.1.5,None,2024-11-22 16h25.30.895007 +0530,
,,,,,,,28,People planning to get married should have a mandatory test for STDs such as AIDS and gonorrhea before a marriage certificate can be issued. ,,,,,,,,,,,,,,,,,0,27,27,27,1307.5004390999966,,,,,,,,,,,,,,,,,,,,,,,,,,,,,,,,,,,,,,,,,,,,,,,,,,,,,,,1307.4692324000061,1307.5004390999966,1307.5004390999966,1441.9203995999997,3.0,134.41846389998682,,,,YSY,001,2024-11-22_16h25.00.406,Disgust Thang,2024.1.5,None,2024-11-22 16h25.30.895007 +0530,
,,,,,,,29,"There are too many lawsuits in the courts, and the courts do not have the time to deal with more severe issues. ",,,,,,,,,,,,,,,,,0,28,28,28,1441.9482710000011,,,,,,,,,,,,,,,,,,,,,,,,,,,,,,,,,,,,,,,,,,,,,,,,,,,,,,,1441.9207349000208,1441.9482710000011,1441.9482710000011,1463.5322242999973,3.0,21.584258899994893,,,,YSY,001,2024-11-22_16h25.00.406,Disgust Thang,2024.1.5,None,2024-11-22 16h25.30.895007 +0530,
,,,,,,,30R,Nuclear power and nuclear-generating stations should be banned. ,,,,,,,,,,,,,,,,,0,29,29,29,1463.5600279000064,,,,,,,,,,,,,,,,,,,,,,,,,,,,,,,,,,,,,,,,,,,,,,,,,,,,,,,1463.5325180000218,1463.5600279000064,1463.5600279000064,1469.8206763000053,5.0,6.26095479997457,,,,YSY,001,2024-11-22_16h25.00.406,Disgust Thang,2024.1.5,None,2024-11-22 16h25.30.895007 +0530,
,,,,,,,31R,The death penalty is clearly a form of cruel and unusual punishment and should be banned. ,,,,,,,,,,,,,,,,,0,30,30,30,1469.8479266000213,,,,,,,,,,,,,,,,,,,,,,,,,,,,,,,,,,,,,,,,,,,,,,,,,,,,,,,1469.8209659999993,1469.8479266000213,1469.8479266000213,1483.5066394000023,4.0,13.658412999997381,,,,YSY,001,2024-11-22_16h25.00.406,Disgust Thang,2024.1.5,None,2024-11-22 16h25.30.895007 +0530,
,,,,,,,32R,Sexual harassment of women in the workplace is a serious problem and should be prosecuted under law,,,,,,,,,,,,,,,,,0,31,31,31,1483.535159799998,,,,,,,,,,,,,,,,,,,,,,,,,,,,,,,,,,,,,,,,,,,,,,,,,,,,,,,1483.506952900003,1483.535159799998,1483.535159799998,1490.3227896000026,1.0,6.788709599990398,,,,YSY,001,2024-11-22_16h25.00.406,Disgust Thang,2024.1.5,None,2024-11-22 16h25.30.895007 +0530,
,,,,,,,33R,"The primary function of prisons should be to rehabilitate criminals, not to punish them. ",,,,,,,,,,,,,,,,,0,32,32,32,1490.3517773000058,,,,,,,,,,,,,,,,,,,,,,,,,,,,,,,,,,,,,,,,,,,,,,,,,,,,,,,1490.32307090002,1490.3517773000058,1490.3517773000058,1497.2619589999958,2.0,6.911879099992802,,,,YSY,001,2024-11-22_16h25.00.406,Disgust Thang,2024.1.5,None,2024-11-22 16h25.30.895007 +0530,
,,,,,,,34R,The states should abolish criminal penalties for victimless crimes such as gambling and prostitution. ,,,,,,,,,,,,,,,,,0,33,33,33,1497.2890371000103,,,,,,,,,,,,,,,,,,,,,,,,,,,,,,,,,,,,,,,,,,,,,,,,,,,,,,,1497.262298400019,1497.2890371000103,1497.2890371000103,1507.5639468000154,3.0,10.276699700014433,,,,YSY,001,2024-11-22_16h25.00.406,Disgust Thang,2024.1.5,None,2024-11-22 16h25.30.895007 +0530,
,,,,,,,35,The CBI should be able to wiretap the phones and read the mail of suspected individuals.,,,,,,,,,,,,,,,,,0,34,34,34,1507.5847497000068,,,,,,,,,,,,,,,,,,,,,,,,,,,,,,,,,,,,,,,,,,,,,,,,,,,,,,,1507.5641676000087,1507.5847497000068,1507.5847497000068,1509.4135944000154,3.0,1.8263609999848995,,,,YSY,001,2024-11-22_16h25.00.406,Disgust Thang,2024.1.5,None,2024-11-22 16h25.30.895007 +0530,
,,,,,,,36R,"The central government must take strong steps to reverse global warming, even if it means losing some jobs. ",,,,,,,,,,,,,,,,,0,35,35,35,1509.4341909000068,,,,,,,,,,,,,,,,,,,,,,,,,,,,,,,,,,,,,,,,,,,,,,,,,,,,,,,1509.4138712999993,1509.4341909000068,1509.4341909000068,1510.1468340000138,3.0,0.7098991999810096,,,,YSY,001,2024-11-22_16h25.00.406,Disgust Thang,2024.1.5,None,2024-11-22 16h25.30.895007 +0530,
,,,,,,,37,Most youth who fall under the reservation scheme today are lazy and do not want to work.,,,,,,,,,,,,,,,,,0,36,36,36,1510.1668900000222,,,,,,,,,,,,,,,,,,,,,,,,,,,,,,,,,,,,,,,,,,,,,,,,,,,,,,,1510.1470547000063,1510.1668900000222,1510.1668900000222,1511.7303083000006,3.0,1.5606126000056975,,,,YSY,001,2024-11-22_16h25.00.406,Disgust Thang,2024.1.5,None,2024-11-22 16h25.30.895007 +0530,
,,,,,,,38,Profanity and sexually oriented material on television should be stopped or penalized by the government. ,,,,,,,,,,,,,,,,,0,37,37,37,1511.7506432000082,,,,,,,,,,,,,,,,,,,,,,,,,,,,,,,,,,,,,,,,,,,,,,,,,,,,,,,1511.7305321000167,1511.7506432000082,1511.7506432000082,1513.1465236000076,3.0,1.3934077000012621,,,,YSY,001,2024-11-22_16h25.00.406,Disgust Thang,2024.1.5,None,2024-11-22 16h25.30.895007 +0530,
,,,,,,,39,"The government must stop the flow of immigrants, both legal and illegal, from Bangladesh.",,,,,,,,,,,,,,,,,0,38,38,38,1513.1671770999965,,,,,,,,,,,,,,,,,,,,,,,,,,,,,,,,,,,,,,,,,,,,,,,,,,,,,,,1513.1467414000072,1513.1671770999965,1513.1671770999965,1513.7635298999958,3.0,0.5940393999917433,,,,YSY,001,2024-11-22_16h25.00.406,Disgust Thang,2024.1.5,None,2024-11-22 16h25.30.895007 +0530,
,,,,,,,40R,There should be sensitization classes for individuals in the LGBTQ+ community in school.,,,,,,,,,,,,,,,,,0,39,39,39,1513.7849989999959,,,,,,,,,,,,,,,,,,,,,,,,,,,,,,,,,,,,,,,,,,,,,,,,,,,,,,,1513.7637544000172,1513.7849989999959,1513.7849989999959,1516.5795463999966,3.0,2.791696900007082,,,,YSY,001,2024-11-22_16h25.00.406,Disgust Thang,2024.1.5,None,2024-11-22 16h25.30.895007 +0530,
,,,,,,,,,,,,,,,,,,,,,,,,,,,,,,,,,,,,,,,,,,,,,,,,,,,,,,,,,,,,,,,,,,,,,,,,,,,,,,,,,,,,,,,,,,1516.5797261999978,1516.593952700001,1526.5927613000094,YSY,001,2024-11-22_16h25.00.406,Disgust Thang,2024.1.5,None,2024-11-22 16h25.30.895007 +0530,
